t_ns,type,sensorId,accx,accy,accz,gyrox,gyroy,gyroz,magx,magy,magz,server_time_iso
68184241269,1,0,-0.0,-0.0,-0.0,0.0,0.0,0.0,0.0,0.0,0.0,2025-12-11T02:28:09.527942+00:00
68280086516,1,0,0.012356878258287907,0.2359239012002945,-0.9749982953071594,-0.04727773368358612,0.005859133321791887,-0.024453792721033096,0.0,0.0,0.0,2025-12-11T02:28:09.529677+00:00
68330077278,1,0,0.011365000158548355,0.2366558164358139,-0.9808713793754578,-0.044148191809654236,0.01491415686905384,-0.0402500219643116,0.0,0.0,0.0,2025-12-11T02:28:09.629108+00:00
68396739470,1,0,0.01308759767562151,0.23933953046798706,-0.9805135726928711,-0.033765606582164764,0.015979453921318054,-0.06917557120323181,0.0,0.0,0.0,2025-12-11T02:28:09.629235+00:00
68463426108,1,0,0.011357414536178112,0.2405594140291214,-0.9798362851142883,-0.030201178044080734,0.013316212221980095,-0.09287824481725693,0.0,0.0,0.0,2025-12-11T02:28:09.734168+00:00
68530037063,1,0,0.0038796488661319017,0.24348711967468262,-0.9717828035354614,-0.030201178044080734,0.013316212221980095,-0.09287824481725693,0.0,0.0,0.0,2025-12-11T02:28:09.834276+00:00
68596719332,1,0,-0.006821149028837681,0.24787865579128265,-0.971171498298645,-0.0574614554643631,0.04207923263311386,-0.17594192922115326,0.0,0.0,0.0,2025-12-11T02:28:09.834433+00:00
68663389749,1,0,0.00560229504480958,0.24495096504688263,-0.9714251160621643,-0.059177517890930176,0.04953631013631821,-0.2497779130935669,0.0,0.0,0.0,2025-12-11T02:28:09.935792+00:00
68730043986,1,0,0.016479402780532837,0.24177928268909454,-0.9725525975227356,-0.07010254263877869,0.042611878365278244,-0.2494816929101944,0.0,0.0,0.0,2025-12-11T02:28:10.016273+00:00
68780064743,1,0,0.016829494386911392,0.24885456264019012,-0.9732401371002197,-0.08775481581687927,0.039948634803295135,-0.20516707003116608,0.0,0.0,0.0,2025-12-11T02:28:10.016619+00:00
68846733258,1,0,0.020811254158616066,0.25568586587905884,-0.9751084446907043,-0.08960531651973724,0.03781804442405701,-0.15847615897655487,0.0,0.0,0.0,2025-12-11T02:28:10.095893+00:00
68913442877,1,0,0.020254315808415413,0.2612972855567932,-0.9697645306587219,-0.07079945504665375,0.04048128426074982,-0.10372344404459,0.0,0.0,0.0,2025-12-11T02:28:10.176651+00:00
68980127300,1,0,0.01920909807085991,0.2642250061035156,-0.9683919548988342,-0.07891117036342621,0.052732203155756,-0.07628778368234634,0.0,0.0,0.0,2025-12-11T02:28:10.256410+00:00
69046744658,1,0,0.019730443134903908,0.26568883657455444,-0.9689056873321533,-0.08168350905179977,0.04420982673764229,-0.057852376252412796,0.0,0.0,0.0,2025-12-11T02:28:10.343890+00:00
69113422709,1,0,0.029058735817670822,0.2737400233745575,-0.9705621600151062,-0.055580221116542816,0.022903883829712868,-0.022255050018429756,0.0,0.0,0.0,2025-12-11T02:28:10.343970+00:00
69180156315,1,0,0.025971313938498497,0.28032734990119934,-0.9730003476142883,-0.05334818363189697,0.012783563695847988,-0.018472110852599144,0.0,0.0,0.0,2025-12-11T02:28:10.423819+00:00
69230087756,1,0,0.02384781464934349,0.27935144305229187,-0.9657700657844543,-0.05334818363189697,0.012783563695847988,-0.018472110852599144,0.0,0.0,0.0,2025-12-11T02:28:10.503462+00:00
69296771017,1,0,0.029391029849648476,0.2759357988834381,-0.968834638595581,-0.05901703983545303,0.0021305938716977835,-0.015877321362495422,0.0,0.0,0.0,2025-12-11T02:28:10.584356+00:00
69363476258,1,0,0.04414326697587967,0.27081233263015747,-0.9573395848274231,-0.10902613401412964,-0.048471011221408844,0.023679200559854507,0.0,0.0,0.0,2025-12-11T02:28:10.584434+00:00
69430133702,1,0,0.026375817134976387,0.29398995637893677,-0.9576428532600403,-0.10883878171443939,-0.0788319781422615,0.10051709413528442,0.0,0.0,0.0,2025-12-11T02:28:10.666534+00:00
69496817934,1,0,0.221635639667511,0.18932466208934784,-0.9061736464500427,-0.21900014579296112,-0.11505208164453506,0.3294619619846344,0.0,0.0,0.0,2025-12-11T02:28:10.754445+00:00
69563498240,1,0,0.19834132492542267,0.27422797679901123,-0.9993340373039246,-0.6703524589538574,-0.25620391964912415,1.5227532386779785,0.0,0.0,0.0,2025-12-11T02:28:10.834588+00:00
69630147066,1,0,0.03872355446219444,0.4479382336139679,-0.9944714307785034,-0.28901463747024536,-0.14488039910793304,1.9089913368225098,0.0,0.0,0.0,2025-12-11T02:28:10.978605+00:00
69680127079,1,0,0.02665024995803833,0.45525747537612915,-0.9949053525924683,0.09991586208343506,-0.06178722158074379,1.4689159393310547,0.0,0.0,0.0,2025-12-11T02:28:10.978755+00:00
69746821210,1,0,0.01889965496957302,0.4415948688983917,-0.9732248783111572,0.14121398329734802,-0.0905502438545227,0.8733605146408081,0.0,0.0,0.0,2025-12-11T02:28:11.165329+00:00
69813521492,1,0,0.04714933782815933,0.38645651936531067,-0.9438607096672058,0.043062493205070496,-0.20826555788516998,0.4944813847541809,0.0,0.0,0.0,2025-12-11T02:28:11.165449+00:00
69880186319,1,0,0.07656118273735046,0.3415651023387909,-0.9317401647567749,-0.027467235922813416,-0.2226470708847046,0.30300062894821167,0.0,0.0,0.0,2025-12-11T02:28:11.165525+00:00
69946873607,1,0,0.08770965784788132,0.3291223645210266,-0.9228594303131104,-0.11418497562408447,-0.19068816304206848,0.21271929144859314,0.0,0.0,0.0,2025-12-11T02:28:11.256783+00:00
70013556867,1,0,0.0685662031173706,0.3440048396587372,-0.9471534490585327,-0.09578713774681091,-0.15073952078819275,0.11831575632095337,0.0,0.0,0.0,2025-12-11T02:28:11.256872+00:00
70080204212,1,0,0.06273634731769562,0.3501042127609253,-0.952026903629303,-0.0619669109582901,-0.105464406311512,0.02666236087679863,0.0,0.0,0.0,2025-12-11T02:28:11.342591+00:00
70130166231,1,0,0.060061015188694,0.34717652201652527,-0.9401426911354065,-0.0619669109582901,-0.105464406311512,0.02666236087679863,0.0,0.0,0.0,2025-12-11T02:28:11.454777+00:00
70196841095,1,0,0.08222639560699463,0.3393692970275879,-0.9513658285140991,-0.051728568971157074,-0.12037855386734009,0.017321528866887093,0.0,0.0,0.0,2025-12-11T02:28:11.454959+00:00
70263507915,1,0,0.058908093720674515,0.3508361577987671,-0.9475695490837097,-0.052050355821847916,-0.1347600668668747,0.06101050600409508,0.0,0.0,0.0,2025-12-11T02:28:11.543954+00:00
70330196175,1,0,0.039558861404657364,0.3601071834564209,-0.9439166784286499,-0.051872823387384415,-0.12197650223970413,0.03690624609589577,0.0,0.0,0.0,2025-12-11T02:28:11.633642+00:00
70396863296,1,0,0.029013952240347862,0.3601071834564209,-0.9410614371299744,-0.0407702662050724,-0.10173586755990982,0.012505796737968922,0.0,0.0,0.0,2025-12-11T02:28:11.633813+00:00
70463553330,1,0,0.023536816239356995,0.35961925983428955,-0.9469674825668335,-0.027507798746228218,-0.07244019955396652,0.0016806414350867271,0.0,0.0,0.0,2025-12-11T02:28:11.724282+00:00
70530233655,1,0,0.02637421153485775,0.35571566224098206,-0.9340075254440308,-0.02790384367108345,-0.04634041711688042,0.004314270801842213,0.0,0.0,0.0,2025-12-11T02:28:11.812982+00:00
70580216643,1,0,0.02463897317647934,0.35644757747650146,-0.9326401948928833,-0.05644999071955681,-0.019175346940755844,-0.006442170590162277,0.0,0.0,0.0,2025-12-11T02:28:11.813073+00:00
70646903802,1,0,0.026808179914951324,0.363278865814209,-0.9460808038711548,-0.035715967416763306,-0.026099776849150658,-0.008926003240048885,0.0,0.0,0.0,2025-12-11T02:28:11.892257+00:00
70713598414,1,0,0.020252712070941925,0.368402361869812,-0.9461290240287781,-0.0001963181421160698,0.012250915169715881,-0.02448366954922676,0.0,0.0,0.0,2025-12-11T02:28:11.971963+00:00
70780214678,1,0,0.025880826637148857,0.3637668192386627,-0.9372889995574951,-0.0001963181421160698,0.012250915169715881,-0.02448366954922676,0.0,0.0,0.0,2025-12-11T02:28:12.057411+00:00
70846882390,1,0,0.026266509667038918,0.365474671125412,-0.9428068399429321,-0.0013012392446398735,0.045807767659425735,-0.027881652116775513,0.0,0.0,0.0,2025-12-11T02:28:12.138552+00:00
70913533853,1,0,0.0323641374707222,0.36205899715423584,-0.9508704543113708,0.012747774831950665,0.05006895959377289,-0.04322081059217453,0.0,0.0,0.0,2025-12-11T02:28:12.138638+00:00
70980215931,1,0,0.04299379885196686,0.3571794927120209,-0.9418211579322815,0.024074390530586243,0.04420982673764229,-0.04690387845039368,0.0,0.0,0.0,2025-12-11T02:28:12.221078+00:00
71046885036,1,0,0.0516168512403965,0.3505921959877014,-0.9414125084877014,0.007715667597949505,0.0292956680059433,-0.024802042171359062,0.0,0.0,0.0,2025-12-11T02:28:12.292321+00:00
71113570571,1,0,0.04523773863911629,0.34717652201652527,-0.9419771432876587,0.003392436308786273,0.02077329158782959,-0.00035166298039257526,0.0,0.0,0.0,2025-12-11T02:28:12.372751+00:00
71180216101,1,0,0.03941299021244049,0.3498602509498596,-0.9475407004356384,-0.005859624594449997,0.0010652969358488917,-0.02264213189482689,0.0,0.0,0.0,2025-12-11T02:28:12.452865+00:00
71246876449,1,0,0.04785968363285065,0.34888434410095215,-0.9466158747673035,-0.015228195115923882,-0.006924430374056101,-0.02911418117582798,0.0,0.0,0.0,2025-12-11T02:28:12.532440+00:00
71313607910,1,0,0.04613455757498741,0.3505921959877014,-0.9466285109519958,-0.004201174713671207,0.00372853921726346,0.007878697477281094,0.0,0.0,0.0,2025-12-11T02:28:12.532518+00:00
71380238292,1,0,0.03454199805855751,0.35132408142089844,-0.9420559406280518,-0.0053060962818562984,0.0053264847956597805,0.00448071351274848,0.0,0.0,0.0,2025-12-11T02:28:12.612191+00:00
71446943925,1,0,0.039699580520391464,0.35034817457199097,-0.9396025538444519,-0.014870984479784966,-0.0015979454619809985,-0.026475001126527786,0.0,0.0,0.0,2025-12-11T02:28:12.699370+00:00
71496976125,1,0,0.04111015796661377,0.347664475440979,-0.9437326788902283,-0.017576739192008972,-0.0021305938716977835,-0.017078690230846405,0.0,0.0,0.0,2025-12-11T02:28:12.778509+00:00
71563590988,1,0,0.04130679368972778,0.35351988673210144,-0.9470091462135315,-0.018775977194309235,-0.005859133321791887,-0.00767128448933363,0.0,0.0,0.0,2025-12-11T02:28:12.859432+00:00
71630262546,1,0,0.03835761174559593,0.35278794169425964,-0.9447880983352661,-0.01882036030292511,0.0015979454619809985,-0.0016452185809612274,0.0,0.0,0.0,2025-12-11T02:28:12.859511+00:00
71696940687,1,0,0.035219281911849976,0.35595962405204773,-0.9403256773948669,-0.023586159572005272,0.010120321065187454,-0.01938284933567047,0.0,0.0,0.0,2025-12-11T02:28:12.940114+00:00
71763568995,1,0,0.0367986336350441,0.3586433529853821,-0.9439370036125183,-0.023586159572005272,0.010120321065187454,-0.01938284933567047,0.0,0.0,0.0,2025-12-11T02:28:13.018395+00:00
71830252157,1,0,0.03990890458226204,0.3591313064098358,-0.944604218006134,-0.024691084399819374,0.010652969591319561,-0.02278083562850952,0.0,0.0,0.0,2025-12-11T02:28:13.097756+00:00
71896928445,1,0,0.03838552162051201,0.35961925983428955,-0.9485833644866943,-0.013497619889676571,0.009587673470377922,-0.008385705761611462,0.0,0.0,0.0,2025-12-11T02:28:13.183480+00:00
71946950035,1,0,0.039190925657749176,0.36035117506980896,-0.9408139586448669,-0.0006700376980006695,0.012783563695847988,-0.011304421350359917,0.0,0.0,0.0,2025-12-11T02:28:13.183564+00:00
72013593391,1,0,0.03662995621562004,0.35961925983428955,-0.9444558024406433,-0.013096025213599205,0.0,-0.011772594414651394,0.0,0.0,0.0,2025-12-11T02:28:13.263403+00:00
72080278716,1,0,0.03900698199868202,0.3562035858631134,-0.9392626881599426,0.004591674543917179,0.009587673470377922,-0.009759069420397282,0.0,0.0,0.0,2025-12-11T02:28:13.343385+00:00
72146937371,1,0,0.03649429604411125,0.3591313064098358,-0.9494598507881165,0.009462887421250343,0.013316212221980095,-0.006333344615995884,0.0,0.0,0.0,2025-12-11T02:28:13.417331+00:00
72213589693,1,0,0.037352994084358215,0.35644757747650146,-0.9489359855651855,0.0027612349949777126,0.007989726960659027,-0.016928892582654953,0.0,0.0,0.0,2025-12-11T02:28:13.497006+00:00
72280256363,1,0,0.03938756138086319,0.3547397553920746,-0.9440904259681702,0.00424001133069396,0.013848860748112202,-0.013151505962014198,0.0,0.0,0.0,2025-12-11T02:28:13.577510+00:00
72346937801,1,0,0.042288508266210556,0.3493722975254059,-0.9397560358047485,-0.010082991793751717,0.015446805395185947,-0.011750401929020882,0.0,0.0,0.0,2025-12-11T02:28:13.577618+00:00
72413643603,1,0,0.04026920720934868,0.35571566224098206,-0.9466716647148132,0.004273298662155867,0.008522375486791134,-0.01767105609178543,0.0,0.0,0.0,2025-12-11T02:28:13.659166+00:00
72480294605,1,0,0.04185356944799423,0.3530319333076477,-0.9509731531143188,0.02005288563668728,0.004793836735188961,-0.012281738221645355,0.0,0.0,0.0,2025-12-11T02:28:13.741134+00:00
72546942840,1,0,0.04289115220308304,0.35108011960983276,-0.9513105750083923,0.02945474535226822,-0.0010652969358488917,-0.010329242795705795,0.0,0.0,0.0,2025-12-11T02:28:13.825292+00:00
72613648022,1,0,0.03731744736433029,0.34571269154548645,-0.9441056847572327,0.024605724960565567,-0.0005326484679244459,-0.01676800101995468,0.0,0.0,0.0,2025-12-11T02:28:13.905387+00:00
72680343054,1,0,0.03541601449251175,0.3422970175743103,-0.9436021447181702,0.015644298866391182,0.005859133321791887,-0.027380190789699554,0.0,0.0,0.0,2025-12-11T02:28:13.905469+00:00
72746929885,1,0,0.03885352611541748,0.3391253352165222,-0.9418516159057617,0.015644298866391182,0.005859133321791887,-0.027380190789699554,0.0,0.0,0.0,2025-12-11T02:28:13.984631+00:00
72813618205,1,0,0.044235698878765106,0.3422970175743103,-0.9464699625968933,-0.011534027755260468,0.006924430374056101,-0.01929408125579357,0.0,0.0,0.0,2025-12-11T02:28:14.065447+00:00
72863600241,1,0,0.042520735412836075,0.3452247083187103,-0.9478627443313599,0.00041823950596153736,-0.0010652969358488917,-0.005646662786602974,0.0,0.0,0.0,2025-12-11T02:28:14.134338+00:00
72930292529,1,0,0.03905779495835304,0.3430289328098297,-0.9461630582809448,-0.0022542267106473446,-0.005859133321791887,-0.0007699023699387908,0.0,0.0,0.0,2025-12-11T02:28:14.214560+00:00
72996965090,1,0,0.035766106098890305,0.3437608778476715,-0.9442896842956543,0.014780080877244473,0.0053264847956597805,-0.01232057623565197,0.0,0.0,0.0,2025-12-11T02:28:14.294027+00:00
73063628464,1,0,0.03684438765048981,0.34034520387649536,-0.9501473307609558,0.01637536659836769,0.014381510205566883,-0.024361612275242805,0.0,0.0,0.0,2025-12-11T02:28:14.294107+00:00
73130293611,1,0,0.040785446763038635,0.3369295597076416,-0.9464954733848572,-0.010786319151520729,0.01757740043103695,-0.018535275012254715,0.0,0.0,0.0,2025-12-11T02:28:14.373361+00:00
73196944131,1,0,0.04425855353474617,0.33863741159439087,-0.9495751857757568,0.007923081517219543,0.015979453921318054,-0.0018248914275318384,0.0,0.0,0.0,2025-12-11T02:28:14.453069+00:00
73263621901,1,0,0.0409897156059742,0.3408331871032715,-0.9508069157600403,0.006901382002979517,0.00745707843452692,-0.016521750018000603,0.0,0.0,0.0,2025-12-11T02:28:14.534070+00:00
73313660423,1,0,0.04476463049650192,0.3352217376232147,-0.9480187296867371,-0.005117462947964668,0.004261187743395567,-0.021130068227648735,0.0,0.0,0.0,2025-12-11T02:28:14.534214+00:00
73380303359,1,0,0.0403200201690197,0.3354656994342804,-0.953572154045105,-0.005117462947964668,0.004261187743395567,-0.021130068227648735,0.0,0.0,0.0,2025-12-11T02:28:14.618534+00:00
73446953878,1,0,0.0395994633436203,0.3379054665565491,-0.9494370222091675,-0.009005811996757984,-0.004793836735188961,-0.004586126655340195,0.0,0.0,0.0,2025-12-11T02:28:14.698105+00:00
73513624676,1,0,0.0380329005420208,0.33717355132102966,-0.9475507736206055,-0.009709136560559273,-0.0015979454619809985,-0.011370998807251453,0.0,0.0,0.0,2025-12-11T02:28:14.778888+00:00
73580341630,1,0,0.037874337285757065,0.33888137340545654,-0.9494496583938599,-0.004084666259586811,0.010120321065187454,-0.007939726114273071,0.0,0.0,0.0,2025-12-11T02:28:14.851521+00:00
73646984474,1,0,0.037572529166936874,0.33888137340545654,-0.9553176760673523,-0.007047766353935003,0.009055024944245815,-0.014741242863237858,0.0,0.0,0.0,2025-12-11T02:28:14.933557+00:00
73713711678,1,0,0.02600787952542305,0.3522999882698059,-0.9545401930809021,0.012686748057603836,0.017044750973582268,-0.03493496775627136,0.0,0.0,0.0,2025-12-11T02:28:15.013425+00:00
73763760689,1,0,-0.06413569301366806,0.3991432189941406,-0.9660729765892029,0.10716837644577026,0.1257050484418869,-0.28282779455184937,0.0,0.0,0.0,2025-12-11T02:28:15.013518+00:00
73830432790,1,0,-0.0910474881529808,0.40963417291641235,-0.966271162033081,0.22173017263412476,0.3590050935745239,-0.9558101892471313,0.0,0.0,0.0,2025-12-11T02:28:15.094221+00:00
73897105019,1,0,-0.1044328585267067,0.41768530011177063,-0.9291052222251892,0.13366466760635376,0.38403958082199097,-1.783581256866455,0.0,0.0,0.0,2025-12-11T02:28:15.172735+00:00
73963727838,1,0,-0.0038353526033461094,0.3771854639053345,-0.954932689666748,0.13362497091293335,0.27111807465553284,-1.9316048622131348,0.0,0.0,0.0,2025-12-11T02:28:15.258659+00:00
74030425836,1,0,0.08217655122280121,0.3127760589122772,-0.9211750030517578,0.03198540210723877,0.31426259875297546,-1.530091643333435,0.0,0.0,0.0,2025-12-11T02:28:15.258740+00:00
74097060054,1,0,0.11666268855333328,0.2622731924057007,-0.9421411156654358,-0.06001955270767212,0.2839016616344452,-0.9025177955627441,0.0,0.0,0.0,2025-12-11T02:28:15.338513+00:00
74163779143,1,0,0.09454461932182312,0.26544487476348877,-0.9607638716697693,-0.05029118061065674,0.24501830339431763,-0.4335174262523651,0.0,0.0,0.0,2025-12-11T02:28:15.418938+00:00
74230451273,1,0,0.06437414884567261,0.28496289253234863,-0.9635738134384155,-0.02535088360309601,0.22584296762943268,-0.18888816237449646,0.0,0.0,0.0,2025-12-11T02:28:15.502044+00:00
74297128553,1,0,0.04652787744998932,0.29960137605667114,-0.9531814455986023,-0.05336909741163254,0.18802492320537567,-0.11790774762630463,0.0,0.0,0.0,2025-12-11T02:28:15.568120+00:00
74363774012,1,0,0.04603191465139389,0.31180015206336975,-0.9561179280281067,-0.05336909741163254,0.18802492320537567,-0.11790774762630463,0.0,0.0,0.0,2025-12-11T02:28:15.648624+00:00
74430392633,1,0,0.04851318895816803,0.3222910463809967,-0.9650707244873047,-0.07610555738210678,0.12996622920036316,-0.09924273192882538,0.0,0.0,0.0,2025-12-11T02:28:15.728302+00:00
74497085852,1,0,0.06361546367406845,0.32253503799438477,-0.9542632102966309,-0.05710551142692566,0.11079088598489761,-0.0708540752530098,0.0,0.0,0.0,2025-12-11T02:28:15.728511+00:00
74563763563,1,0,0.07431115955114365,0.3276585340499878,-0.9541844725608826,-0.04529749974608421,0.13529272377490997,-0.03762194141745567,0.0,0.0,0.0,2025-12-11T02:28:15.807805+00:00
74630439029,1,0,0.0881299152970314,0.3276585340499878,-0.9564979672431946,-0.03104661963880062,0.14488039910793304,-0.029230687767267227,0.0,0.0,0.0,2025-12-11T02:28:15.877725+00:00
74680523768,1,0,0.09810252487659454,0.32741454243659973,-0.9519389867782593,-0.022503431886434555,0.09587672352790833,-0.012971833348274231,0.0,0.0,0.0,2025-12-11T02:28:15.960143+00:00
74747175600,1,0,0.09983532875776291,0.32497480511665344,-0.952961266040802,-0.010149569250643253,0.06817900389432907,-0.002711303299292922,0.0,0.0,0.0,2025-12-11T02:28:16.040510+00:00
74813851847,1,0,0.09913762658834457,0.3227790296077728,-0.9519314169883728,-0.011248941533267498,0.03249155730009079,-0.006862545385956764,0.0,0.0,0.0,2025-12-11T02:28:16.040652+00:00
74880507476,1,0,0.09723619371652603,0.32204708456993103,-0.9514278769493103,-0.008554283529520035,-0.006924430374056101,-0.014752339571714401,0.0,0.0,0.0,2025-12-11T02:28:16.125271+00:00
74947122358,1,0,0.10020069032907486,0.3152157962322235,-0.955718994140625,-0.023104757070541382,-0.06498311460018158,0.017532354220747948,0.0,0.0,0.0,2025-12-11T02:28:16.205686+00:00
75013819226,1,0,0.10328806191682816,0.30789655447006226,-0.953281044960022,-0.05104530230164528,-0.13582536578178406,0.07796714454889297,0.0,0.0,0.0,2025-12-11T02:28:16.285826+00:00
75080518306,1,0,0.10049992054700851,0.3091164231300354,-0.9495060443878174,-0.12176324427127838,-0.23276738822460175,0.32113856077194214,0.0,0.0,0.0,2025-12-11T02:28:16.365605+00:00
75130464355,1,0,0.242682084441185,0.23494799435138702,-0.9060186147689819,-0.12176324427127838,-0.23276738822460175,0.32113856077194214,0.0,0.0,0.0,2025-12-11T02:28:16.365695+00:00
75197164367,1,0,0.2726137042045593,0.2681286036968231,-0.870776355266571,-0.4781632423400879,-0.3883007764816284,1.7140002250671387,0.0,0.0,0.0,2025-12-11T02:28:16.446163+00:00
75263804488,1,0,0.08873669058084488,0.4628206789493561,-0.9920328855514526,-0.4309805631637573,-0.19441670179367065,2.262749433517456,0.0,0.0,0.0,2025-12-11T02:28:16.525813+00:00
75330471207,1,0,0.0440329872071743,0.469651997089386,-0.9657939076423645,-0.011876225471496582,-0.02716507390141487,1.6635737419128418,0.0,0.0,0.0,2025-12-11T02:28:16.591755+00:00
75397139260,1,0,0.08680418133735657,0.41573354601860046,-0.9404633045196533,0.05391457676887512,-0.04953631013631821,1.015467643737793,0.0,0.0,0.0,2025-12-11T02:28:16.671434+00:00
75463832760,1,0,0.12005186825990677,0.384016752243042,-0.9338350892066956,-0.009948551654815674,-0.11025823652744293,0.5325092077255249,0.0,0.0,0.0,2025-12-11T02:28:16.751104+00:00
75530500101,1,0,0.13253472745418549,0.35205602645874023,-0.9187338948249817,-0.02944961190223694,-0.12730298936367035,0.2653210759162903,0.0,0.0,0.0,2025-12-11T02:28:16.751201+00:00
75597176309,1,0,0.15515030920505524,0.33888137340545654,-0.9208099842071533,-0.05601424723863602,-0.08628905564546585,0.1389477699995041,0.0,0.0,0.0,2025-12-11T02:28:16.830734+00:00
75663809876,1,0,0.16377997398376465,0.34107714891433716,-0.9447269439697266,-0.12386511266231537,-0.08096256852149963,0.09513332694768906,0.0,0.0,0.0,2025-12-11T02:28:16.910354+00:00
75730514497,1,0,0.15960921347141266,0.35132408142089844,-0.9406171441078186,-0.05525203049182892,-0.07776667922735214,0.08659909665584564,0.0,0.0,0.0,2025-12-11T02:28:16.991669+00:00
75797169555,1,0,0.16027633845806122,0.34742048382759094,-0.9375068545341492,-0.0544266439974308,-0.0703096017241478,0.07681228965520859,0.0,0.0,0.0,2025-12-11T02:28:17.074291+00:00
75863826277,1,0,0.15677021443843842,0.3483963906764984,-0.9299417734146118,-0.07353764027357101,-0.09534408152103424,0.06348878890275955,0.0,0.0,0.0,2025-12-11T02:28:17.153363+00:00
75930527450,1,0,0.15499939024448395,0.35034817457199097,-0.9237439632415771,-0.08749788254499435,-0.11238882690668106,0.06677582114934921,0.0,0.0,0.0,2025-12-11T02:28:17.153454+00:00
75997187097,1,0,0.1563250869512558,0.3576674461364746,-0.939778745174408,-0.06442427635192871,-0.08522375673055649,0.10461071878671646,0.0,0.0,0.0,2025-12-11T02:28:17.234055+00:00
76047168593,1,0,0.14072541892528534,0.36815837025642395,-0.9298872947692871,-0.06442427635192871,-0.08522375673055649,0.10461071878671646,0.0,0.0,0.0,2025-12-11T02:28:17.309363+00:00
76113848377,1,0,0.12701338529586792,0.3730378746986389,-0.9420648813247681,-0.057563867419958115,-0.06658106297254562,0.042514070868492126,0.0,0.0,0.0,2025-12-11T02:28:17.389641+00:00
76180542668,1,0,0.14055919647216797,0.36035117506980896,-0.9307512640953064,-0.03237900882959366,-0.05912398546934128,-0.0017450815066695213,0.0,0.0,0.0,2025-12-11T02:28:17.469793+00:00
76247210721,1,0,0.13196663558483124,0.3615710735321045,-0.9353001117706299,-0.02780952677130699,-0.0468730665743351,-0.00849111843854189,0.0,0.0,0.0,2025-12-11T02:28:17.469876+00:00
76313878142,1,0,0.1324702501296997,0.3608391284942627,-0.9333986043930054,-0.025488723069429398,-0.05699339136481285,-0.016760315746068954,0.0,0.0,0.0,2025-12-11T02:28:17.564528+00:00
76380560341,1,0,0.1280408352613449,0.36132705211639404,-0.9410221576690674,-0.025020554661750793,-0.06338516622781754,-0.0291863065212965,0.0,0.0,0.0,2025-12-11T02:28:17.644992+00:00
76447226881,1,0,0.12278418242931366,0.3637668192386627,-0.9300195574760437,-0.013084929436445236,-0.04474247246980667,-0.013279111124575138,0.0,0.0,0.0,2025-12-11T02:28:17.718192+00:00
76497211863,1,0,0.11589889973402023,0.3637668192386627,-0.9321405291557312,-0.0039293197914958,-0.026099776849150658,-0.02903095819056034,0.0,0.0,0.0,2025-12-11T02:28:17.718276+00:00
76563867521,1,0,0.12057072669267654,0.36132705211639404,-0.9340038299560547,-0.005095271393656731,-0.01811004988849163,-0.024143101647496223,0.0,0.0,0.0,2025-12-11T02:28:17.797675+00:00
76630598282,1,0,0.11644572764635086,0.3608391284942627,-0.9361044764518738,-0.001708383671939373,-0.0053264847956597805,-0.023741506040096283,0.0,0.0,0.0,2025-12-11T02:28:17.877167+00:00
76697246427,1,0,0.11938980221748352,0.3608391284942627,-0.9376354217529297,0.010784182697534561,-0.00372853921726346,-0.03231243044137955,0.0,0.0,0.0,2025-12-11T02:28:17.956770+00:00
76763931121,1,0,0.11780291795730591,0.36181503534317017,-0.9329891204833984,0.005165260285139084,-0.008522375486791134,-0.03649696707725525,0.0,0.0,0.0,2025-12-11T02:28:18.026901+00:00
76830634038,1,0,0.11520630121231079,0.35425180196762085,-0.9318005442619324,-0.00015193317085504532,-0.00372853921726346,-0.030509736388921738,0.0,0.0,0.0,2025-12-11T02:28:18.106724+00:00
76897239683,1,0,0.11746551096439362,0.3591313064098358,-0.9340267777442932,-0.00015193317085504532,-0.00372853921726346,-0.030509736388921738,0.0,0.0,0.0,2025-12-11T02:28:18.194762+00:00
76947248330,1,0,0.11347869783639908,0.36035117506980896,-0.9314682483673096,-0.003918224014341831,0.007989726960659027,-0.030537474900484085,0.0,0.0,0.0,2025-12-11T02:28:18.194847+00:00
77013915880,1,0,0.12334362417459488,0.3591313064098358,-0.9357085824012756,-0.015541022643446922,0.019175346940755844,-0.03777942433953285,0.0,0.0,0.0,2025-12-11T02:28:18.269586+00:00
77080614190,1,0,0.11561999469995499,0.3630349040031433,-0.9411135911941528,-0.02132638730108738,0.003195890923961997,-0.019366206601262093,0.0,0.0,0.0,2025-12-11T02:28:18.332645+00:00
77147256504,1,0,0.11748841404914856,0.3625469505786896,-0.9371318817138672,-0.0035665612667798996,-0.00745707843452692,-0.027145039290189743,0.0,0.0,0.0,2025-12-11T02:28:18.411991+00:00
77213927513,1,0,0.11592438071966171,0.35888731479644775,-0.9355906844139099,0.003932733088731766,0.0015979454619809985,-0.022570008412003517,0.0,0.0,0.0,2025-12-11T02:28:18.491793+00:00
77280624058,1,0,0.11146192252635956,0.36132705211639404,-0.9387289881706238,-0.0078121209517121315,-0.0015979454619809985,-0.013240274041891098,0.0,0.0,0.0,2025-12-11T02:28:18.571288+00:00
77347271813,1,0,0.11174851655960083,0.3569355309009552,-0.9307909607887268,-0.004029185976833105,0.0021305938716977835,-0.015472308732569218,0.0,0.0,0.0,2025-12-11T02:28:18.571413+00:00
77413950324,1,0,0.11229013651609421,0.3601071834564209,-0.9340648651123047,-0.006696104072034359,0.009587673470377922,-0.011348806321620941,0.0,0.0,0.0,2025-12-11T02:28:18.652864+00:00
77480621192,1,0,0.11539282649755478,0.35961925983428955,-0.9336968660354614,-0.02222389355301857,-0.003195890923961997,0.000212961807847023,0.0,0.0,0.0,2025-12-11T02:28:18.740415+00:00
77547275339,1,0,0.11492739617824554,0.36108309030532837,-0.9407737255096436,-0.004937788937240839,-0.006391781847923994,0.005613374523818493,0.0,0.0,0.0,2025-12-11T02:28:18.820612+00:00
77613975782,1,0,0.1113983765244484,0.3615710735321045,-0.9301034212112427,-0.012794294394552708,-0.0015979454619809985,-0.001600833609700203,0.0,0.0,0.0,2025-12-11T02:28:18.899486+00:00
77680657138,1,0,0.11266060173511505,0.3623029589653015,-0.9375125169754028,-0.010875086300075054,-0.008522375486791134,-0.006483142264187336,0.0,0.0,0.0,2025-12-11T02:28:18.899586+00:00
77747321485,1,0,0.11316410452127457,0.363278865814209,-0.9356111288070679,-0.00790643785148859,-0.004793836735188961,-0.0004348836373537779,0.0,0.0,0.0,2025-12-11T02:28:18.979106+00:00
77813974368,1,0,0.1098775640130043,0.36132705211639404,-0.9344276189804077,-0.01054006814956665,0.0010652969358488917,-0.000830930657684803,0.0,0.0,0.0,2025-12-11T02:28:19.050958+00:00
77863996580,1,0,0.10953248292207718,0.36205899715423584,-0.9344301223754883,-0.01054006814956665,0.0010652969358488917,-0.000830930657684803,0.0,0.0,0.0,2025-12-11T02:28:19.129400+00:00
77930658060,1,0,0.10937139391899109,0.36108309030532837,-0.9359839558601379,-0.0020933328196406364,0.0010652969358488917,-0.02261439338326454,0.0,0.0,0.0,2025-12-11T02:28:19.208498+00:00
77997358333,1,0,0.11231814324855804,0.3591313064098358,-0.9378600716590881,-0.013793802820146084,-0.009587673470377922,-0.01931072399020195,0.0,0.0,0.0,2025-12-11T02:28:19.289835+00:00
78064053115,1,0,0.10971647500991821,0.36181503534317017,-0.9359814524650574,0.00449735764414072,-0.004261187743395567,0.003046321449801326,0.0,0.0,0.0,2025-12-11T02:28:19.289920+00:00
78130698115,1,0,0.1061127632856369,0.3608391284942627,-0.9385958313941956,-0.0048656645230948925,-0.004793836735188961,-0.0041789826937019825,0.0,0.0,0.0,2025-12-11T02:28:19.369406+00:00
78197407905,1,0,0.10332715511322021,0.3566915690898895,-0.9351659417152405,-0.0018137949518859386,-0.004793836735188961,-0.009429598227143288,0.0,0.0,0.0,2025-12-11T02:28:19.458388+00:00
78264061951,1,0,0.10681800544261932,0.35961925983428955,-0.9406608939170837,-0.007850957103073597,-0.0021305938716977835,-0.007967466488480568,0.0,0.0,0.0,2025-12-11T02:28:19.537896+00:00
78314068763,1,0,0.10609754920005798,0.36132705211639404,-0.9365257024765015,-0.005184038542211056,0.0021305938716977835,-0.012090968899428844,0.0,0.0,0.0,2025-12-11T02:28:19.537979+00:00
78380765410,1,0,0.10662399977445602,0.35888731479644775,-0.93772953748703,0.005740979686379433,0.004793836735188961,-0.012387151829898357,0.0,0.0,0.0,2025-12-11T02:28:19.617417+00:00
78447423753,1,0,0.10591355711221695,0.3566915690898895,-0.9349743127822876,-0.0029353611171245575,0.00372853921726346,-0.010567808523774147,0.0,0.0,0.0,2025-12-11T02:28:19.697641+00:00
78514073793,1,0,0.1076590046286583,0.35815539956092834,-0.9377217888832092,-0.0029353611171245575,0.00372853921726346,-0.010567808523774147,0.0,0.0,0.0,2025-12-11T02:28:19.777047+00:00
78580756031,1,0,0.10864835232496262,0.35522767901420593,-0.9315037727355957,-0.012744361534714699,0.0053264847956597805,-0.008380157873034477,0.0,0.0,0.0,2025-12-11T02:28:19.859250+00:00
78647527236,1,0,0.10646548122167587,0.35815539956092834,-0.9396284222602844,-0.009374118410050869,-0.0005326484679244459,-0.005718787666410208,0.0,0.0,0.0,2025-12-11T02:28:19.941720+00:00
78714184670,1,0,0.10695376247167587,0.35742348432540894,-0.9356568455696106,-0.007839861325919628,0.0,-0.009473983198404312,0.0,0.0,0.0,2025-12-11T02:28:19.941815+00:00
78764232688,1,0,0.10576777905225754,0.3598632216453552,-0.9385983943939209,-0.013877023011446,0.007989726960659027,-0.008011850528419018,0.0,0.0,0.0,2025-12-11T02:28:20.021932+00:00
78830896053,1,0,0.10437237471342087,0.3591313064098358,-0.9365384578704834,-0.005998325999826193,0.006391781847923994,-0.0038106758147478104,0.0,0.0,0.0,2025-12-11T02:28:20.103200+00:00
78897576207,1,0,0.10177833586931229,0.35888731479644775,-0.9356949329376221,-0.009340830147266388,0.006391781847923994,-0.010238337330520153,0.0,0.0,0.0,2025-12-11T02:28:20.175723+00:00
78964262986,1,0,0.11111178249120712,0.3591313064098358,-0.9380415081977844,-0.009614819660782814,0.0026632423978298903,-0.02417638897895813,0.0,0.0,0.0,2025-12-11T02:28:20.255166+00:00
79030931379,1,0,0.10782267153263092,0.3598632216453552,-0.9365130066871643,-0.0025559579953551292,0.0010652969358488917,-0.010941663756966591,0.0,0.0,0.0,2025-12-11T02:28:20.255251+00:00
79097578382,1,0,0.10904926061630249,0.3591313064098358,-0.9390918016433716,0.005657759495079517,0.0005326484679244459,-0.0010882774367928505,0.0,0.0,0.0,2025-12-11T02:28:20.335019+00:00
79164284716,1,0,0.10485559701919556,0.35888731479644775,-0.9318767786026001,-0.008950330317020416,0.0026632423978298903,-0.012118708342313766,0.0,0.0,0.0,2025-12-11T02:28:20.414342+00:00
79214255441,1,0,0.10681800544261932,0.35425180196762085,-0.9406608939170837,-0.008950330317020416,0.0026632423978298903,-0.012118708342313766,0.0,0.0,0.0,2025-12-11T02:28:20.494240+00:00
79280887376,1,0,0.10713513195514679,0.3593752682209015,-0.9368630647659302,-0.007806573063135147,0.004261187743395567,-0.01399353239685297,0.0,0.0,0.0,2025-12-11T02:28:20.573678+00:00
79347549126,1,0,0.10487596690654755,0.3569355309009552,-0.9346370100975037,-0.004023638088256121,0.0021305938716977835,-0.01622556895017624,0.0,0.0,0.0,2025-12-11T02:28:20.573775+00:00
79414265299,1,0,0.10783278942108154,0.3562035858631134,-0.9378931522369385,-0.011606152169406414,-0.003195890923961997,-0.009501722641289234,0.0,0.0,0.0,2025-12-11T02:28:20.658138+00:00
79480904226,1,0,0.10078646242618561,0.358399361371994,-0.9415678977966309,0.0005291998386383057,-0.0010652969358488917,-0.020711828023195267,0.0,0.0,0.0,2025-12-11T02:28:20.741324+00:00
79547572159,1,0,0.0945100411772728,0.35742348432540894,-0.9326431155204773,-0.023688163608312607,-0.009055024944245815,-0.05667190998792648,0.0,0.0,0.0,2025-12-11T02:28:20.817498+00:00
79614224021,1,0,0.08400841057300568,0.368402361869812,-0.9356533288955688,-0.03391198813915253,0.003195890923961997,-0.10043856501579285,0.0,0.0,0.0,2025-12-11T02:28:20.894973+00:00
79680948678,1,0,-0.02382797561585903,0.4340316653251648,-0.9342046976089478,-0.029908835887908936,0.05539544299244881,-0.43939369916915894,0.0,0.0,0.0,2025-12-11T02:28:20.973833+00:00
79747596334,1,0,-0.0196708794683218,0.4525737464427948,-0.9598798751831055,-0.024769723415374756,0.09427878260612488,-1.4951045513153076,0.0,0.0,0.0,2025-12-11T02:28:20.973928+00:00
79814260318,1,0,0.05042931064963341,0.4079262912273407,-0.920718789100647,0.061267733573913574,0.04154658317565918,-1.9261113405227661,0.0,0.0,0.0,2025-12-11T02:28:21.053269+00:00
79880972764,1,0,0.0657917708158493,0.35644757747650146,-0.9218131899833679,0.05578160285949707,0.166718989610672,-1.692629098892212,0.0,0.0,0.0,2025-12-11T02:28:21.132661+00:00
79947645504,1,0,0.06801024079322815,0.3483963906764984,-0.9185190796852112,-0.021771550178527832,0.24768154323101044,-1.186229944229126,0.0,0.0,0.0,2025-12-11T02:28:21.199723+00:00
80014385651,1,0,0.04158322140574455,0.3432729244232178,-0.9376910328865051,0.0208684504032135,0.3366338610649109,-0.787797212600708,0.0,0.0,0.0,2025-12-11T02:28:21.279520+00:00
80081026132,1,0,0.05124896019697189,0.3369295597076416,-0.938309907913208,0.020944416522979736,0.3014790415763855,-0.44014906883239746,0.0,0.0,0.0,2025-12-11T02:28:21.361779+00:00
80131050990,1,0,0.04404917731881142,0.34107714891433716,-0.9445736408233643,0.020944416522979736,0.3014790415763855,-0.44014906883239746,0.0,0.0,0.0,2025-12-11T02:28:21.361870+00:00
80197708041,1,0,0.059235285967588425,0.3366855978965759,-0.9451518654823303,-0.02449776977300644,0.19707995653152466,-0.2024412602186203,0.0,0.0,0.0,2025-12-11T02:28:21.442378+00:00
80264424644,1,0,0.12472119182348251,0.30740857124328613,-0.9353533983230591,-0.1065790057182312,-0.011718266643583775,0.10053373873233795,0.0,0.0,0.0,2025-12-11T02:28:21.534022+00:00
80331062080,1,0,0.21469806134700775,0.2927700877189636,-0.8777587413787842,-0.2904311418533325,-0.19974318146705627,1.129692792892456,0.0,0.0,0.0,2025-12-11T02:28:21.609759+00:00
80397730904,1,0,0.12668615579605103,0.4272003471851349,-0.9444826245307922,-0.36273545026779175,-0.2253103107213974,1.9973375797271729,0.0,0.0,0.0,2025-12-11T02:28:21.689327+00:00
80464423151,1,0,0.045438461005687714,0.5055163502693176,-0.9692339301109314,-0.0925530195236206,-0.17151281237602234,1.92927086353302,0.0,0.0,0.0,2025-12-11T02:28:21.689431+00:00
80531035890,1,0,0.055051833391189575,0.47135981917381287,-0.9393170475959778,0.07776743173599243,-0.12677033245563507,1.4077355861663818,0.0,0.0,0.0,2025-12-11T02:28:21.769092+00:00
80581079542,1,0,0.0554867722094059,0.43647143244743347,-0.9280998706817627,0.10139885544776917,-0.1933513879776001,0.9096022844314575,0.0,0.0,0.0,2025-12-11T02:28:21.848798+00:00
80647738688,1,0,0.06390555948019028,0.4279322922229767,-0.9233798980712891,0.07593740522861481,-0.2103961557149887,0.4800342321395874,0.0,0.0,0.0,2025-12-11T02:28:21.917646+00:00
80714425234,1,0,0.07805155217647552,0.3923119008541107,-0.9232756495475769,0.039285533130168915,-0.18003518879413605,0.24021513760089874,0.0,0.0,0.0,2025-12-11T02:28:21.997608+00:00
80781152438,1,0,0.10286012291908264,0.3623029589653015,-0.9186073541641235,-0.00574011355638504,-0.11292148381471634,0.1656835377216339,0.0,0.0,0.0,2025-12-11T02:28:22.076852+00:00
80847831410,1,0,0.09572398662567139,0.36742645502090454,-0.9334967732429504,-0.014329832047224045,-0.07350549101829529,0.10460303723812103,0.0,0.0,0.0,2025-12-11T02:28:22.076984+00:00
80914502237,1,0,0.10078646242618561,0.36498668789863586,-0.9415678977966309,0.018030403181910515,-0.05433014780282974,0.05776018649339676,0.0,0.0,0.0,2025-12-11T02:28:22.157427+00:00
80981189997,1,0,0.10666459798812866,0.35595962405204773,-0.9432498216629028,0.03607531264424324,-0.05699339136481285,0.062412891536951065,0.0,0.0,0.0,2025-12-11T02:28:22.238356+00:00
81031118984,1,0,0.10282102972269058,0.35351988673210144,-0.9367223381996155,0.03607531264424324,-0.05699339136481285,0.062412891536951065,0.0,0.0,0.0,2025-12-11T02:28:22.324684+00:00
81097761859,1,0,0.09638853371143341,0.35254397988319397,-0.9300413727760315,-0.001626439392566681,-0.04527512192726135,0.06740829348564148,0.0,0.0,0.0,2025-12-11T02:28:22.324861+00:00
81164429180,1,0,0.0992198958992958,0.35205602645874023,-0.9396817088127136,-0.03252881020307541,-0.03462215140461922,0.018592892214655876,0.0,0.0,0.0,2025-12-11T02:28:22.404708+00:00
81231097863,1,0,0.09703698009252548,0.35742348432540894,-0.9478063583374023,-0.027724171057343483,-0.02982831373810768,0.03105771727859974,0.0,0.0,0.0,2025-12-11T02:28:22.484847+00:00
81297800041,1,0,0.09543482214212418,0.3571794927120209,-0.9410898685455322,-0.0004681725986301899,0.0005326484679244459,0.012425987981259823,0.0,0.0,0.0,2025-12-11T02:28:22.565582+00:00
81364459146,1,0,0.10577531903982162,0.35034817457199097,-0.9396334886550903,0.011722661554813385,0.007989726960659027,-0.006316700950264931,0.0,0.0,0.0,2025-12-11T02:28:22.634452+00:00
81431133531,1,0,0.10916712135076523,0.34254100918769836,-0.9316725730895996,0.004530645906925201,0.0053264847956597805,-0.0014732283307239413,0.0,0.0,0.0,2025-12-11T02:28:22.713016+00:00
81497803987,1,0,0.10770733654499054,0.3462006151676178,-0.9442772269248962,-0.007923081517219543,0.016512103378772736,0.0018248914275318384,0.0,0.0,0.0,2025-12-11T02:28:22.793148+00:00
81564459727,1,0,0.10906705260276794,0.3454686999320984,-0.9415069222450256,-0.0188148133456707,0.010120321065187454,-0.002398476004600525,0.0,0.0,0.0,2025-12-11T02:28:22.793237+00:00
81631117089,1,0,0.11232825368642807,0.3440048396587372,-0.9392402172088623,-0.03697623312473297,-0.007989726960659027,0.008767244406044483,0.0,0.0,0.0,2025-12-11T02:28:22.873124+00:00
81697810730,1,0,0.10956554859876633,0.347664475440979,-0.938915491104126,-0.034035325050354004,0.006924430374056101,0.018581796437501907,0.0,0.0,0.0,2025-12-11T02:28:22.952555+00:00
81764506764,1,0,0.09696584194898605,0.35034817457199097,-0.9381455779075623,-0.011506287381052971,0.011185618117451668,-0.023060372099280357,0.0,0.0,0.0,2025-12-11T02:28:23.033517+00:00
81831149028,1,0,0.11527495831251144,0.3508361577987671,-0.941116213798523,-0.015031877905130386,0.0015979454619809985,-0.0046305106952786446,0.0,0.0,0.0,2025-12-11T02:28:23.116101+00:00
81897885299,1,0,0.1165117546916008,0.34815242886543274,-0.9450750946998596,-0.007643543183803558,-0.005859133321791887,0.0150096844881773,0.0,0.0,0.0,2025-12-11T02:28:23.198496+00:00
81947798346,1,0,0.11108898371458054,0.35108011960983276,-0.9349362254142761,-0.007643543183803558,-0.005859133321791887,0.0150096844881773,0.0,0.0,0.0,2025-12-11T02:28:23.198569+00:00
82014477419,1,0,0.10990037024021149,0.3491283059120178,-0.9375328421592712,-0.024868618696928024,-0.01811004988849163,0.0013234307989478111,0.0,0.0,0.0,2025-12-11T02:28:23.277529+00:00
82081149649,1,0,0.10649334639310837,0.35132408142089844,-0.9434236288070679,-0.033148910850286484,-0.015446805395185947,0.000509144738316536,0.0,0.0,0.0,2025-12-11T02:28:23.352003+00:00
82147804205,1,0,0.1002625897526741,0.35742348432540894,-0.9407092332839966,-0.029058698564767838,-0.011185618117451668,0.007695612497627735,0.0,0.0,0.0,2025-12-11T02:28:23.430718+00:00
82214531690,1,0,0.09747449308633804,0.36035117506980896,-0.9369342923164368,-0.019930830225348473,-0.01491415686905384,-0.004289943724870682,0.0,0.0,0.0,2025-12-11T02:28:23.509951+00:00
82281176518,1,0,0.0976533368229866,0.35742348432540894,-0.9377955198287964,-0.017543449997901917,-0.00372853921726346,-0.021598240360617638,0.0,0.0,0.0,2025-12-11T02:28:23.510035+00:00
82347957822,1,0,0.10525144636631012,0.3571794927120209,-0.9387747645378113,-0.010038608685135841,0.00372853921726346,-0.01777646876871586,0.0,0.0,0.0,2025-12-11T02:28:23.589773+00:00
82397938918,1,0,0.10729364305734634,0.3571794927120209,-0.9349642395973206,-0.020315781235694885,0.008522375486791134,-0.0031628310680389404,0.0,0.0,0.0,2025-12-11T02:28:23.657628+00:00
82464635944,1,0,0.10492167621850967,0.3591313064098358,-0.9408473372459412,-0.01314595714211464,0.0026632423978298903,-0.004993269685655832,0.0,0.0,0.0,2025-12-11T02:28:23.739840+00:00
82531272498,1,0,0.10023210197687149,0.36035117506980896,-0.9365689158439636,-0.01646072044968605,0.0026632423978298903,-0.015187222510576248,0.0,0.0,0.0,2025-12-11T02:28:23.819543+00:00
82597967620,1,0,0.10457663983106613,0.358399361371994,-0.9408498406410217,-0.010077443905174732,0.005859133321791887,-0.012503660283982754,0.0,0.0,0.0,2025-12-11T02:28:23.819665+00:00
82664669986,1,0,0.10406044870615005,0.3576674461364746,-0.9410262703895569,-0.0007421622285619378,0.009587673470377922,-0.0015120645985007286,0.0,0.0,0.0,2025-12-11T02:28:23.898802+00:00
82731255544,1,0,0.10436731576919556,0.3586433529853821,-0.9358484148979187,-0.0007421622285619378,0.009587673470377922,-0.0015120645985007286,0.0,0.0,0.0,2025-12-11T02:28:23.964671+00:00
82797937103,1,0,0.1006152555346489,0.36035117506980896,-0.9417417049407959,-0.0033702440559864044,0.012250915169715881,-0.0026613702066242695,0.0,0.0,0.0,2025-12-11T02:28:24.044078+00:00
82847907727,1,0,0.10041861981153488,0.360595166683197,-0.9384652376174927,-0.015328059904277325,0.003195890923961997,-0.015555530786514282,0.0,0.0,0.0,2025-12-11T02:28:24.124055+00:00
82914621857,1,0,0.10817023366689682,0.3571794927120209,-0.9368554949760437,-0.0018581794574856758,0.012783563695847988,-0.0034035323187708855,0.0,0.0,0.0,2025-12-11T02:28:24.204592+00:00
82981281453,1,0,0.10232768952846527,0.35888731479644775,-0.9400038719177246,-0.010479039512574673,0.005859133321791887,-0.009116771630942822,0.0,0.0,0.0,2025-12-11T02:28:24.204669+00:00
83047932444,1,0,0.10369762033224106,0.35791143774986267,-0.9386136531829834,-0.005953941494226456,0.0053264847956597805,-0.009836741723120213,0.0,0.0,0.0,2025-12-11T02:28:24.284048+00:00
83114639659,1,0,0.10214369744062424,0.358399361371994,-0.9384524822235107,-0.01427861861884594,-0.006391781847923994,-0.004624962341040373,0.0,0.0,0.0,2025-12-11T02:28:24.364698+00:00
83181268629,1,0,0.10233527421951294,0.3586433529853821,-0.9410389065742493,-0.010127375833690166,-0.006924430374056101,-0.0057243360206484795,0.0,0.0,0.0,2025-12-11T02:28:24.446831+00:00
83247912877,1,0,0.10473520308732986,0.355471670627594,-0.9389510154724121,0.000747710233554244,-0.0026632423978298903,0.0007588063017465174,0.0,0.0,0.0,2025-12-11T02:28:24.526561+00:00
83314610784,1,0,0.10041351616382599,0.355471670627594,-0.9377752542495728,-0.00030173035338521004,0.0026632423978298903,-0.010171760804951191,0.0,0.0,0.0,2025-12-11T02:28:24.606164+00:00
83381413429,1,0,0.10108321160078049,0.3505921959877014,-0.9350099563598633,-0.01574075222015381,-0.0005326484679244459,-0.010662125423550606,0.0,0.0,0.0,2025-12-11T02:28:24.606239+00:00
83447973168,1,0,0.10315084457397461,0.35108011960983276,-0.9346497058868408,-0.018385477364063263,-0.00745707843452692,-0.009551655501127243,0.0,0.0,0.0,2025-12-11T02:28:24.681490+00:00
83514739895,1,0,0.10471993684768677,0.3530319333076477,-0.9368809461593628,-0.03125189617276192,-0.007989726960659027,-0.0013601304963231087,0.0,0.0,0.0,2025-12-11T02:28:24.761427+00:00
83581361301,1,0,0.10682063549757004,0.35571566224098206,-0.9410059452056885,-0.024946292862296104,-0.013848860748112202,0.011869046837091446,0.0,0.0,0.0,2025-12-11T02:28:24.841911+00:00
83648003184,1,0,0.10245824605226517,0.3601071834564209,-0.934309720993042,-0.024946292862296104,-0.013848860748112202,0.011869046837091446,0.0,0.0,0.0,2025-12-11T02:28:24.921485+00:00
83714669402,1,0,0.09577732533216476,0.363278865814209,-0.9407423138618469,-0.02068963646888733,-0.006924430374056101,-0.003542233258485794,0.0,0.0,0.0,2025-12-11T02:28:24.989872+00:00
83764691223,1,0,0.09420312941074371,0.36669453978538513,-0.9378209710121155,-0.02326223812997341,0.0010652969358488917,-0.012224122881889343,0.0,0.0,0.0,2025-12-11T02:28:24.989949+00:00
83831364245,1,0,0.09776613861322403,0.36425477266311646,-0.9296861886978149,-0.0043863956816494465,-0.004793836735188961,-0.018111487850546837,0.0,0.0,0.0,2025-12-11T02:28:25.071564+00:00
83898041094,1,0,0.0983382984995842,0.36035117506980896,-0.937100350856781,-0.012309478595852852,0.004261187743395567,-0.016286596655845642,0.0,0.0,0.0,2025-12-11T02:28:25.152306+00:00
83964716862,1,0,0.10023210197687149,0.36279094219207764,-0.9365689158439636,-0.011210105381906033,0.0005326484679244459,-0.012135353870689869,0.0,0.0,0.0,2025-12-11T02:28:25.231812+00:00
84031367822,1,0,0.0967971682548523,0.363278865814209,-0.9386644959449768,-0.013564197346568108,-0.00745707843452692,0.0006533926352858543,0.0,0.0,0.0,2025-12-11T02:28:25.311526+00:00
84098074126,1,0,0.09426157921552658,0.36571863293647766,-0.9457565546035767,0.01580177992582321,-0.009055024944245815,0.0023762830533087254,0.0,0.0,0.0,2025-12-11T02:28:25.397605+00:00
84164722902,1,0,0.09402424097061157,0.366206556558609,-0.9369596242904663,0.02985633909702301,-0.0005326484679244459,-0.013716129586100578,0.0,0.0,0.0,2025-12-11T02:28:25.397692+00:00
84214750052,1,0,0.08934482932090759,0.3625469505786896,-0.9340612888336182,0.014171070419251919,0.004261187743395567,-0.031910836696624756,0.0,0.0,0.0,2025-12-11T02:28:25.477832+00:00
84281369825,1,0,0.09645465761423111,0.3569355309009552,-0.9390120506286621,0.0038994443602859974,0.010652969591319561,-0.018050458282232285,0.0,0.0,0.0,2025-12-11T02:28:25.558410+00:00
84348079385,1,0,0.09802122414112091,0.3537638485431671,-0.9408981800079346,0.0038994443602859974,0.010652969591319561,-0.018050458282232285,0.0,0.0,0.0,2025-12-11T02:28:25.638674+00:00
84414721668,1,0,0.09797804057598114,0.3547397553920746,-0.9350329041481018,0.002639177953824401,0.007989726960659027,-0.0003572109853848815,0.0,0.0,0.0,2025-12-11T02:28:25.638763+00:00
84481392747,1,0,0.09906391054391861,0.3532758951187134,-0.941925585269928,-0.017330488190054893,0.004261187743395567,0.0006256531924009323,0.0,0.0,0.0,2025-12-11T02:28:25.718581+00:00
84548078192,1,0,0.09472447633743286,0.355471670627594,-0.9383346438407898,-0.009077935479581356,-0.0021305938716977835,0.005206231027841568,0.0,0.0,0.0,2025-12-11T02:28:25.806949+00:00
84614720677,1,0,0.08594544231891632,0.3571794927120209,-0.9409871697425842,-0.006250125356018543,0.004261187743395567,-0.02076176181435585,0.0,0.0,0.0,2025-12-11T02:28:25.885886+00:00
4545119828,1,0,-0.0,-0.0,-0.0,0.0,0.0,0.0,0.0,0.0,0.0,2025-12-11T02:28:32.422204+00:00
4641230241,1,0,0.006813661195337772,0.32253503799438477,-0.9719337224960327,0.006388825364410877,-0.0468730665743351,0.001930304104462266,0.0,0.0,0.0,2025-12-11T02:28:32.567468+00:00
4707933289,1,0,-0.01940714195370674,0.32497480511665344,-0.9488365054130554,-0.02538672462105751,-0.06178722158074379,0.020528743043541908,0.0,0.0,0.0,2025-12-11T02:28:32.567578+00:00
4757922368,1,0,-0.01293910015374422,0.32204708456993103,-0.9603478312492371,0.005288176238536835,-0.054862797260284424,0.10022774338722229,0.0,0.0,0.0,2025-12-11T02:28:32.567625+00:00
4824599477,1,0,-0.028183652088046074,0.33497777581214905,-0.951833963394165,0.0396043136715889,0.010120321065187454,-0.007617941126227379,0.0,0.0,0.0,2025-12-11T02:28:32.671141+00:00
4891319818,1,0,-0.08483710885047913,0.3644987642765045,-0.9662254452705383,0.11436508595943451,-0.012783563695847988,-0.4417209029197693,0.0,0.0,0.0,2025-12-11T02:28:32.771431+00:00
4957923711,1,0,-0.08480404317378998,0.3644987642765045,-0.9707107543945312,0.11436508595943451,-0.012783563695847988,-0.4417209029197693,0.0,0.0,0.0,2025-12-11T02:28:32.771542+00:00
5024135459,1,0,0.001858792849816382,0.2937459945678711,-0.9550631642341614,0.19750089943408966,-0.07244019955396652,-0.4787735342979431,0.0,0.0,0.0,2025-12-11T02:28:32.873986+00:00
5090822767,1,0,-0.02289143018424511,0.2730081081390381,-0.9676669836044312,0.2049810141324997,0.04793836176395416,-0.2670413851737976,0.0,0.0,0.0,2025-12-11T02:28:32.953921+00:00
5157579607,1,0,-0.018421294167637825,0.25007444620132446,-0.9655637741088867,0.17241206765174866,0.05965662747621536,-0.14072701334953308,0.0,0.0,0.0,2025-12-11T02:28:32.954013+00:00
5207512690,1,0,-0.025163283571600914,0.2466587871313095,-0.9637157320976257,0.15484175086021423,0.07563608884811401,-0.0052625760436058044,0.0,0.0,0.0,2025-12-11T02:28:33.035796+00:00
5274177196,1,0,-0.014864410273730755,0.23494799435138702,-0.9800294041633606,0.1499304175376892,0.06604841351509094,0.09903319925069809,0.0,0.0,0.0,2025-12-11T02:28:33.115976+00:00
5340857522,1,0,-0.001949184574186802,0.22958053648471832,-0.9533660411834717,0.11452258378267288,0.058058686554431915,0.25282207131385803,0.0,0.0,0.0,2025-12-11T02:28:33.196687+00:00
5407518300,1,0,-0.022971173748373985,0.2405594140291214,-0.9802616238594055,-0.005602695047855377,0.04793836176395416,0.2493007481098175,0.0,0.0,0.0,2025-12-11T02:28:33.196805+00:00
5474174551,1,0,-0.026028107851743698,0.24177928268909454,-0.9868399500846863,0.020244523882865906,0.006924430374056101,0.16625156998634338,0.0,0.0,0.0,2025-12-11T02:28:33.287977+00:00
5540838335,1,0,-0.04423205181956291,0.2530021667480469,-0.9747249484062195,0.016923345625400543,0.00745707843452692,0.0035144933499395847,0.0,0.0,0.0,2025-12-11T02:28:33.365199+00:00
5607508742,1,0,-0.014156593009829521,0.23397208750247955,-0.982439398765564,0.006422113627195358,-0.0053264847956597805,-0.0025892455596476793,0.0,0.0,0.0,2025-12-11T02:28:33.446065+00:00
5657505315,1,0,-0.002819016808643937,0.22933655977249146,-0.975800096988678,0.006422113627195358,-0.0053264847956597805,-0.0025892455596476793,0.0,0.0,0.0,2025-12-11T02:28:33.446145+00:00
5724156567,1,0,-0.016635242849588394,0.2373877465724945,-0.9738315939903259,0.000777585431933403,0.0053264847956597805,0.04784022271633148,0.0,0.0,0.0,2025-12-11T02:28:33.525606+00:00
5790845007,1,0,-0.014529537409543991,0.23031246662139893,-0.9786467552185059,-0.0071531799621880054,-0.006924430374056101,-0.00042933528311550617,0.0,0.0,0.0,2025-12-11T02:28:33.605342+00:00
5857509624,1,0,-0.013698750175535679,0.23153233528137207,-0.974327564239502,-0.015835069119930267,-0.004261187743395567,0.002143265213817358,0.0,0.0,0.0,2025-12-11T02:28:33.691518+00:00
5924193114,1,0,-0.010174834169447422,0.23104439675807953,-0.9843078851699829,-0.03057076223194599,-0.009587673470377922,0.008437775075435638,0.0,0.0,0.0,2025-12-11T02:28:33.772057+00:00
5990835759,1,0,-0.01281457394361496,0.23470403254032135,-0.9772539734840393,-0.010354846715927124,-0.0053264847956597805,0.025159254670143127,0.0,0.0,0.0,2025-12-11T02:28:33.851578+00:00
6057519210,1,0,-0.01677853614091873,0.23689977824687958,-0.9778006672859192,-0.020576540380716324,0.00372853921726346,0.032240308821201324,0.0,0.0,0.0,2025-12-11T02:28:33.851651+00:00
6107511035,1,0,-0.01761442981660366,0.23787568509578705,-0.9814297556877136,-0.005785363260656595,0.009055024944245815,0.01841321773827076,0.0,0.0,0.0,2025-12-11T02:28:33.930996+00:00
6174194727,1,0,-0.014529537409543991,0.24007147550582886,-0.9786467552185059,-0.0173637755215168,-0.006391781847923994,0.005145202856510878,0.0,0.0,0.0,2025-12-11T02:28:34.000080+00:00
6240866015,1,0,-0.012781558558344841,0.23543593287467957,-0.9817392230033875,-0.012888611294329166,-0.00745707843452692,0.011204557493329048,0.0,0.0,0.0,2025-12-11T02:28:34.079733+00:00
6307545951,1,0,-0.014567659236490726,0.23958352208137512,-0.9734714031219482,-0.024204129353165627,0.0021305938716977835,0.01338111236691475,0.0,0.0,0.0,2025-12-11T02:28:34.160201+00:00
6374243659,1,0,-0.015579861588776112,0.23885159194469452,-0.9765843152999878,-0.016197826713323593,0.017044750973582268,0.00025734584778547287,0.0,0.0,0.0,2025-12-11T02:28:34.160283+00:00
6440906361,1,0,-0.014373503625392914,0.23494799435138702,-0.976402759552002,-0.02326223812997341,0.015979453921318054,-0.012224122881889343,0.0,0.0,0.0,2025-12-11T02:28:34.240308+00:00
6507579452,1,0,-0.015728212893009186,0.24421903491020203,-0.9798632264137268,-0.013281249441206455,0.017044750973582268,-0.03776278346776962,0.0,0.0,0.0,2025-12-11T02:28:34.319962+00:00
6557537934,1,0,-0.02091117575764656,0.24690277874469757,-0.9788663387298584,-0.013281249441206455,0.017044750973582268,-0.03776278346776962,0.0,0.0,0.0,2025-12-11T02:28:34.400045+00:00
6624195888,1,0,-0.020778091624379158,0.2420232743024826,-0.973517119884491,-0.0047978125512599945,0.039948634803295135,-0.11566676199436188,0.0,0.0,0.0,2025-12-11T02:28:34.482605+00:00
6690888297,1,0,-0.01713884063065052,0.2420232743024826,-0.9757331013679504,-0.02560608834028244,0.021305939182639122,-0.1542382687330246,0.0,0.0,0.0,2025-12-11T02:28:34.482694+00:00
6757587957,1,0,-0.014018354937434196,0.239827498793602,-0.9777803421020508,-0.0037338659167289734,0.02024064213037491,-0.157843679189682,0.0,0.0,0.0,2025-12-11T02:28:34.563663+00:00
6824290685,1,0,-0.029025573283433914,0.24421903491020203,-0.9780634641647339,0.008271753787994385,0.0351548008620739,-0.20257654786109924,0.0,0.0,0.0,2025-12-11T02:28:34.643919+00:00
6891108988,1,0,-0.02798798866569996,0.23836365342140198,-0.9784007668495178,0.005944550037384033,0.049003660678863525,-0.3468504548072815,0.0,0.0,0.0,2025-12-11T02:28:34.716802+00:00
6957946759,1,0,0.01889454945921898,0.21689383685588837,-0.9725348353385925,-0.01916821300983429,0.03302420675754547,-0.31238365173339844,0.0,0.0,0.0,2025-12-11T02:28:34.796775+00:00
7007920680,1,0,0.015646038576960564,0.222017303109169,-0.9765267372131348,0.006972648203372955,0.05113425478339195,-0.1796104907989502,0.0,0.0,0.0,2025-12-11T02:28:34.796861+00:00
7074523519,1,0,-0.021948760375380516,0.24348711967468262,-0.9785288572311401,0.006976068019866943,0.03355685621500015,-0.23121145367622375,0.0,0.0,0.0,2025-12-11T02:28:34.876468+00:00
7141212531,1,0,-0.01708034612238407,0.23885159194469452,-0.9836686253547668,0.03330682963132858,0.037285394966602325,-0.22649773955345154,0.0,0.0,0.0,2025-12-11T02:28:34.956676+00:00
7207843284,1,0,-0.00704676378518343,0.22787271440029144,-0.9873901605606079,0.03330682963132858,0.037285394966602325,-0.22649773955345154,0.0,0.0,0.0,2025-12-11T02:28:35.025114+00:00
7274505225,1,0,-0.007521332707256079,0.21957755088806152,-0.9697964787483215,0.05037868022918701,0.04740571603178978,-0.1408725380897522,0.0,0.0,0.0,2025-12-11T02:28:35.106107+00:00
7341178126,1,0,-0.010338452644646168,0.22104139626026154,-0.9855166673660278,0.029920781031250954,0.060189276933670044,-0.07360294461250305,0.0,0.0,0.0,2025-12-11T02:28:35.186514+00:00
7407833907,1,0,-0.011743925511837006,0.22323718667030334,-0.9820766448974609,0.031088868156075478,0.03249155730009079,-0.02764308825135231,0.0,0.0,0.0,2025-12-11T02:28:35.266208+00:00
7457830018,1,0,-0.008960890583693981,0.21713781356811523,-0.985161542892456,0.029917368665337563,0.030893610790371895,-0.022001972422003746,0.0,0.0,0.0,2025-12-11T02:28:35.266291+00:00
7524518389,1,0,-0.009711885824799538,0.21689383685588837,-0.976885974407196,0.03777387738227844,0.017044750973582268,-0.01478776428848505,0.0,0.0,0.0,2025-12-11T02:28:35.353198+00:00
7591262724,1,0,-0.012260213494300842,0.20859867334365845,-0.9822529554367065,0.0280813816934824,0.013316212221980095,-0.028418537229299545,0.0,0.0,0.0,2025-12-11T02:28:35.432337+00:00
7657849866,1,0,-0.011015783064067364,0.21079446375370026,-0.9872469305992126,0.026815567165613174,0.013848860748112202,-0.009972031228244305,0.0,0.0,0.0,2025-12-11T02:28:35.511827+00:00
7724543014,1,0,-0.009316087700426579,0.20615893602371216,-0.9837839603424072,0.009686945006251335,-0.0021305938716977835,0.014384031295776367,0.0,0.0,0.0,2025-12-11T02:28:35.511904+00:00
7791214693,1,0,-2.8347709303488955e-05,0.19639992713928223,-0.9799200892448425,0.003703981637954712,0.01811004988849163,0.11076225340366364,0.0,0.0,0.0,2025-12-11T02:28:35.591564+00:00
7857874420,1,0,0.010463075712323189,0.19932763278484344,-0.9755297303199768,-0.007324308156967163,0.02077329158782959,0.17621804773807526,0.0,0.0,0.0,2025-12-11T02:28:35.670718+00:00
7907912752,1,0,-0.0009922670433297753,0.20762278139591217,-0.9895883798599243,-0.007324308156967163,0.02077329158782959,0.17621804773807526,0.0,0.0,0.0,2025-12-11T02:28:35.741778+00:00
7974558793,1,0,0.003293780144304037,0.20835471153259277,-0.9859338998794556,-0.007999897003173828,-0.009055024944245815,0.1656668782234192,0.0,0.0,0.0,2025-12-11T02:28:35.821338+00:00
8041276478,1,0,-0.0008464441052637994,0.20542702078819275,-0.9859644174575806,0.0067302510142326355,-0.011718266643583775,0.16012564301490784,0.0,0.0,0.0,2025-12-11T02:28:35.901432+00:00
8107873127,1,0,0.0018552918918430805,0.20371918380260468,-0.978008508682251,-0.0031286850571632385,-0.012250915169715881,0.16909262537956238,0.0,0.0,0.0,2025-12-11T02:28:35.901516+00:00
8174544126,1,0,0.00020640826551243663,0.2034752070903778,-0.9883719086647034,-0.017274148762226105,-0.02396918088197708,0.1463894546031952,0.0,0.0,0.0,2025-12-11T02:28:35.981728+00:00
8241192451,1,0,-0.027438733726739883,0.21567396819591522,-0.9827097654342651,-0.007270969450473785,-0.022903883829712868,0.11783777177333832,0.0,0.0,0.0,2025-12-11T02:28:36.061629+00:00
8307879609,1,0,-0.09471825510263443,0.2527581751346588,-0.9832053184509277,0.0015999674797058105,-0.02343653328716755,-0.16609066724777222,0.0,0.0,0.0,2025-12-11T02:28:36.149482+00:00
8357885359,1,0,-0.06793448328971863,0.2390955686569214,-0.9890462160110474,0.005738392472267151,-0.07190755009651184,-0.4722763001918793,0.0,0.0,0.0,2025-12-11T02:28:36.149576+00:00
8424551559,1,0,-0.00952035654336214,0.1988396793603897,-0.9794723391532898,0.0029127299785614014,-0.028230370953679085,-0.3954606056213379,0.0,0.0,0.0,2025-12-11T02:28:36.228441+00:00
8491243045,1,0,0.005479325074702501,0.1881047785282135,-0.9781542420387268,0.004840478301048279,0.01757740043103695,-0.19695207476615906,0.0,0.0,0.0,2025-12-11T02:28:36.311171+00:00
8557948308,1,0,0.0037999057676643133,0.1881047785282135,-0.9843774437904358,-0.008041727356612682,0.021838588640093803,-0.03320439159870148,0.0,0.0,0.0,2025-12-11T02:28:36.391900+00:00
8624599087,1,0,-0.017282085493206978,0.19542403519153595,-0.9797020554542542,-0.02069518342614174,0.028230370953679085,-0.0027889758348464966,0.0,0.0,0.0,2025-12-11T02:28:36.457611+00:00
8691246771,1,0,-0.025708453729748726,0.20640289783477783,-0.9833871722221375,-0.01864837110042572,0.009055024944245815,-0.02499622479081154,0.0,0.0,0.0,2025-12-11T02:28:36.537231+00:00
8757929411,1,0,-0.01932428777217865,0.20445111393928528,-0.9835126399993896,-0.018775977194309235,0.0053264847956597805,-0.00767128448933363,0.0,0.0,0.0,2025-12-11T02:28:36.619840+00:00
8807886982,1,0,-0.014657564461231232,0.2027432918548584,-0.9846858978271484,-0.018775977194309235,0.0053264847956597805,-0.00767128448933363,0.0,0.0,0.0,2025-12-11T02:28:36.619924+00:00
8874556246,1,0,-0.023285722360014915,0.20762278139591217,-0.984404444694519,-0.02053770422935486,0.00372853921726346,0.026967503130435944,0.0,0.0,0.0,2025-12-11T02:28:36.699404+00:00
8941256058,1,0,-0.023290779441595078,0.20542702078819275,-0.9837144017219543,-0.006125930696725845,0.012783563695847988,0.013514265418052673,0.0,0.0,0.0,2025-12-11T02:28:36.778818+00:00
9007917698,1,0,-0.02364339865744114,0.20567098259925842,-0.9826818108558655,-0.015555530786514282,0.006924430374056101,0.015328059904277325,0.0,0.0,0.0,2025-12-11T02:28:36.865396+00:00
9074591722,1,0,-0.021903054788708687,0.20689086616039276,-0.9847393035888672,-0.0019469477701932192,0.006924430374056101,0.008648600429296494,0.0,0.0,0.0,2025-12-11T02:28:36.865485+00:00
9141266818,1,0,-0.014169283211231232,0.20005954802036285,-0.9807143211364746,0.0009218351915478706,0.009587673470377922,0.028255509212613106,0.0,0.0,0.0,2025-12-11T02:28:36.948680+00:00
9207913780,1,0,-0.012209401465952396,0.20225533843040466,-0.9891533851623535,-0.013293620198965073,0.005859133321791887,0.06619241833686829,0.0,0.0,0.0,2025-12-11T02:28:37.028297+00:00
9257927877,1,0,-0.008242862299084663,0.20079149305820465,-0.9889516830444336,0.01367601752281189,0.0005326484679244459,0.1375778317451477,0.0,0.0,0.0,2025-12-11T02:28:37.107820+00:00
9324590960,1,0,0.007373127155005932,0.1888367086648941,-0.9776228070259094,-0.002561919391155243,0.007989726960659027,0.24555665254592896,0.0,0.0,0.0,2025-12-11T02:28:37.187627+00:00
9391262489,1,0,-0.01504072081297636,0.2051830291748047,-0.9795131087303162,-0.013536877930164337,0.00745707843452692,0.25263217091560364,0.0,0.0,0.0,2025-12-11T02:28:37.187699+00:00
9457912648,1,0,0.0008939009858295321,0.1966439038515091,-0.9880217909812927,-0.013536877930164337,0.00745707843452692,0.25263217091560364,0.0,0.0,0.0,2025-12-11T02:28:37.275680+00:00
9524574850,1,0,-0.0032768589444458485,0.20396314561367035,-0.98391193151474,-0.02386738359928131,0.014381510205566883,0.32562607526779175,0.0,0.0,0.0,2025-12-11T02:28:37.355688+00:00
9591246549,1,0,0.00891683716326952,0.20371918380260468,-0.9764038324356079,-0.013741299510002136,0.013316212221980095,0.4337990880012512,0.0,0.0,0.0,2025-12-11T02:28:37.435150+00:00
9657933587,1,0,-0.00183832214679569,0.20884265005588531,-0.9918373823165894,-0.020060136914253235,0.05699339136481285,0.37122872471809387,0.0,0.0,0.0,2025-12-11T02:28:37.514813+00:00
9724572264,1,0,0.003940671682357788,0.21616190671920776,-0.9800634384155273,-0.004830658435821533,0.012250915169715881,0.2978942394256592,0.0,0.0,0.0,2025-12-11T02:28:37.514892+00:00
9791280982,1,0,0.007252685725688934,0.20835471153259277,-0.9846971035003662,-0.006435766816139221,-0.009055024944245815,0.2089931070804596,0.0,0.0,0.0,2025-12-11T02:28:37.583880+00:00
9857924840,1,0,0.0034574479795992374,0.21567396819591522,-0.9847249984741211,-0.020561177283525467,-0.0005326484679244459,0.13242921233177185,0.0,0.0,0.0,2025-12-11T02:28:37.663498+00:00
9924611306,1,0,0.014488013461232185,0.20762278139591217,-0.9832636713981628,-0.010754305869340897,-0.02077329158782959,0.07939384877681732,0.0,0.0,0.0,2025-12-11T02:28:37.744848+00:00
9991298174,1,0,0.012946879491209984,0.2066468894481659,-0.9848275780677795,-0.020815102383494377,-0.014381510205566883,0.0646304190158844,0.0,0.0,0.0,2025-12-11T02:28:37.824613+00:00
10057967328,1,0,0.006350761745125055,0.21006251871585846,-0.9793555736541748,-0.016095828264951706,-0.009587673470377922,0.03754640370607376,0.0,0.0,0.0,2025-12-11T02:28:37.903772+00:00
10124598141,1,0,0.010546903125941753,0.20859867334365845,-0.9869155287742615,-0.012838678434491158,-0.012783563695847988,0.0044252327643334866,0.0,0.0,0.0,2025-12-11T02:28:37.984170+00:00
10174628529,1,0,0.012619592249393463,0.20957458019256592,-0.9872453808784485,-0.014300812035799026,-0.018642697483301163,-0.0016119289211928844,0.0,0.0,0.0,2025-12-11T02:28:37.984250+00:00
10241284218,1,0,0.011873654089868069,0.20908664166927338,-0.9796598553657532,-0.0011714980937540531,0.005859133321791887,0.005641115363687277,0.0,0.0,0.0,2025-12-11T02:28:38.066217+00:00
10308003166,1,0,0.00895495805889368,0.2127462774515152,-0.9815791249275208,-0.0036331377923488617,0.004261187743395567,-0.018105939030647278,0.0,0.0,0.0,2025-12-11T02:28:38.146909+00:00
10374657843,1,0,0.014326922595500946,0.20859867334365845,-0.9848175048828125,0.011789239943027496,0.003195890923961997,-0.015355801209807396,0.0,0.0,0.0,2025-12-11T02:28:38.230875+00:00
10441326647,1,0,0.008972754701972008,0.20981855690479279,-0.9839943051338196,0.011789239943027496,0.003195890923961997,-0.015355801209807396,0.0,0.0,0.0,2025-12-11T02:28:38.230961+00:00
10507991132,1,0,0.013309662230312824,0.2059149593114853,-0.9872403144836426,0.010338202118873596,0.0005326484679244459,-0.022899478673934937,0.0,0.0,0.0,2025-12-11T02:28:38.309237+00:00
10574625511,1,0,0.0151628153398633,0.19761979579925537,-0.9811884164810181,0.02239588275551796,0.0010652969358488917,-0.023563968017697334,0.0,0.0,0.0,2025-12-11T02:28:38.388483+00:00
10624673982,1,0,0.007196817081421614,0.1995716094970703,-0.977106511592865,0.006560815032571554,0.004793836735188961,-0.02142070233821869,0.0,0.0,0.0,2025-12-11T02:28:38.468313+00:00
10691376929,1,0,0.012407690286636353,0.20030353963375092,-0.9818986654281616,-0.012198517099022865,0.015446805395185947,-0.031351760029792786,0.0,0.0,0.0,2025-12-11T02:28:38.547865+00:00
10758018122,1,0,0.014518548734486103,0.20323124527931213,-0.9874038696289062,-0.013732774183154106,0.00745707843452692,-0.027596566826105118,0.0,0.0,0.0,2025-12-11T02:28:38.547941+00:00
10824679762,1,0,0.013302077539265156,0.2027432918548584,-0.9862052202224731,-0.020473264157772064,0.010120321065187454,-0.03291931003332138,0.0,0.0,0.0,2025-12-11T02:28:38.628763+00:00
10891435178,1,0,0.013110450468957424,0.2042071372270584,-0.9836187958717346,-0.00875060074031353,0.011185618117451668,-0.039236005395650864,0.0,0.0,0.0,2025-12-11T02:28:38.709436+00:00
10958030054,1,0,0.012405161745846272,0.19981558620929718,-0.9815536737442017,-0.013303439132869244,-0.0021305938716977835,-0.034749746322631836,0.0,0.0,0.0,2025-12-11T02:28:38.789167+00:00
11024686574,1,0,0.012410267256200314,0.20079149305820465,-0.9822437167167664,-0.028033584356307983,0.007989726960659027,-0.02920849621295929,0.0,0.0,0.0,2025-12-11T02:28:38.871607+00:00
11074701773,1,0,0.012407690286636353,0.20469509065151215,-0.9818986654281616,-0.028033584356307983,0.007989726960659027,-0.02920849621295929,0.0,0.0,0.0,2025-12-11T02:28:38.873363+00:00
11141341111,1,0,0.013118132948875427,0.2059149593114853,-0.984653890132904,-0.020874857902526855,0.021305939182639122,-0.0295324195176363,0.0,0.0,0.0,2025-12-11T02:28:38.952988+00:00
11208001880,1,0,0.013468224555253983,0.20615893602371216,-0.9853413701057434,-0.009933194145560265,0.013316212221980095,-0.032088376581668854,0.0,0.0,0.0,2025-12-11T02:28:39.033695+00:00
11274682155,1,0,0.01706935651600361,0.2051830291748047,-0.9823819994926453,-0.013710583560168743,0.0015979454619809985,-0.030609600245952606,0.0,0.0,0.0,2025-12-11T02:28:39.119361+00:00
11341364926,1,0,0.01969645544886589,0.20396314561367035,-0.9877107739448547,-0.00964256003499031,0.015446805395185947,-0.020410098135471344,0.0,0.0,0.0,2025-12-11T02:28:39.198152+00:00
11408058686,1,0,0.01984480582177639,0.20323124527931213,-0.984431803226471,0.006322248838841915,0.004793836735188961,0.010969403199851513,0.0,0.0,0.0,2025-12-11T02:28:39.198285+00:00
11474854778,1,0,0.012545927427709103,0.20396314561367035,-0.9772396683692932,-0.0001387009397149086,0.0015979454619809985,0.018831457942724228,0.0,0.0,0.0,2025-12-11T02:28:39.278668+00:00
11541512662,1,0,0.01259931642562151,0.20298725366592407,-0.9844852089881897,-0.013608582317829132,0.004793836735188961,0.006679459474980831,0.0,0.0,0.0,2025-12-11T02:28:39.358403+00:00
11608212192,1,0,0.01414808351546526,0.20298725366592407,-0.9839561581611633,-0.012799843214452267,0.003195890923961997,-0.0008475757203996181,0.0,0.0,0.0,2025-12-11T02:28:39.428682+00:00
11674880265,1,0,0.015528223477303982,0.2066468894481659,-0.9839460253715515,-0.021838940680027008,0.012250915169715881,-0.0009141517803072929,0.0,0.0,0.0,2025-12-11T02:28:39.507539+00:00
11741515095,1,0,0.01691332273185253,0.2051830291748047,-0.9846259355545044,-0.010512327775359154,0.012250915169715881,-0.0045972224324941635,0.0,0.0,0.0,2025-12-11T02:28:39.587374+00:00
11808215698,1,0,0.0193437859416008,0.2066468894481659,-0.9866782426834106,-0.006020518485456705,0.006924430374056101,-0.0007976430933922529,0.0,0.0,0.0,2025-12-11T02:28:39.668309+00:00
11874871940,1,0,0.0181349478662014,0.2051830291748047,-0.9865146279335022,-0.00040159537456929684,0.006924430374056101,0.003386888187378645,0.0,0.0,0.0,2025-12-11T02:28:39.668384+00:00
11941540242,1,0,0.016369124874472618,0.20493905246257782,-0.981006920337677,-0.006388825364410877,0.009587673470377922,-0.001930304104462266,0.0,0.0,0.0,2025-12-11T02:28:39.746311+00:00
11991576280,1,0,0.015735020861029625,0.20615893602371216,-0.9886025786399841,-0.002171006053686142,0.004793836735188961,-0.012068776413798332,0.0,0.0,0.0,2025-12-11T02:28:39.829429+00:00
12058191673,1,0,0.016742117702960968,0.20689086616039276,-0.9847995638847351,-0.002171006053686142,0.004793836735188961,-0.012068776413798332,0.0,0.0,0.0,2025-12-11T02:28:39.913548+00:00
12124869995,1,0,0.026062825694680214,0.20371918380260468,-0.9854211211204529,5.548034096136689e-06,0.00372853921726346,-0.0007532582385465503,0.0,0.0,0.0,2025-12-11T02:28:39.913625+00:00
12191535482,1,0,0.012931612320244312,0.2073788046836853,-0.9827575087547302,0.008598667569458485,-0.0053264847956597805,0.008726272732019424,0.0,0.0,0.0,2025-12-11T02:28:39.993149+00:00
12258245783,1,0,0.014858429320156574,0.20493905246257782,-0.9867112636566162,0.003151734359562397,-0.009587673470377922,-0.01880926452577114,0.0,0.0,0.0,2025-12-11T02:28:40.072754+00:00
12324885493,1,0,0.011035232804715633,0.19932763278484344,-0.9829438924789429,0.020889367908239365,0.0021305938716977835,-0.023575065657496452,0.0,0.0,0.0,2025-12-11T02:28:40.152885+00:00
12391601366,1,0,0.0024477734696120024,0.2027432918548584,-0.9881828427314758,0.010911786928772926,0.0010652969358488917,-0.04963737353682518,0.0,0.0,0.0,2025-12-11T02:28:40.232911+00:00
12441582619,1,0,-0.013625036925077438,0.20469509065151215,-0.9843332171440125,0.018384627997875214,0.0010652969358488917,-0.14374473690986633,0.0,0.0,0.0,2025-12-11T02:28:40.232984+00:00
12508265419,1,0,-0.00862096156924963,0.20079149305820465,-0.984468936920166,-0.0001792609691619873,0.00372853921726346,-0.28248852491378784,0.0,0.0,0.0,2025-12-11T02:28:40.313116+00:00
12574904768,1,0,-0.004498436115682125,0.19932763278484344,-0.9820231795310974,-0.013964101672172546,-0.006391781847923994,-0.35415345430374146,0.0,0.0,0.0,2025-12-11T02:28:40.392634+00:00
12641572069,1,0,0.00517493998631835,0.19078850746154785,-0.9836771488189697,-0.005379930138587952,-0.007989726960659027,-0.29231971502304077,0.0,0.0,0.0,2025-12-11T02:28:40.473783+00:00
12708266081,1,0,0.03121277131140232,0.18054154515266418,-0.9819326996803284,-0.023618172854185104,0.004793836735188961,-0.1173119768500328,0.0,0.0,0.0,2025-12-11T02:28:40.553560+00:00
12774941728,1,0,0.03107200562953949,0.18054154515266418,-0.9862468242645264,-0.028928959742188454,0.018642697483301163,0.04121838137507439,0.0,0.0,0.0,2025-12-11T02:28:40.634300+00:00
12841631831,1,0,0.014687176793813705,0.19444812834262848,-0.9868850708007812,-0.03035011701285839,0.012783563695847988,0.08075612038373947,0.0,0.0,0.0,2025-12-11T02:28:40.634378+00:00
12891597095,1,0,0.0048172143287956715,0.2012794315814972,-0.9819546937942505,-0.03035011701285839,0.012783563695847988,0.08075612038373947,0.0,0.0,0.0,2025-12-11T02:28:40.713793+00:00
12958268264,1,0,0.006544819567352533,0.20249930024147034,-0.9822869300842285,-0.036315158009529114,0.0,0.07242590188980103,0.0,0.0,0.0,2025-12-11T02:28:40.794033+00:00
13024908585,1,0,0.002268886426463723,0.20859867334365845,-0.9873216152191162,-0.03132743015885353,-0.009055024944245815,0.06003319099545479,0.0,0.0,0.0,2025-12-11T02:28:40.873194+00:00
13091585744,1,0,0.007411199621856213,0.20567098259925842,-0.9827982187271118,-0.028917862102389336,-0.0010652969358488917,0.03971186280250549,0.0,0.0,0.0,2025-12-11T02:28:40.953730+00:00
13158283472,1,0,0.004658651538193226,0.20762278139591217,-0.9838535785675049,-0.028521815314888954,0.0,0.03707823157310486,0.0,0.0,0.0,2025-12-11T02:28:40.953812+00:00
13224956353,1,0,0.0032785607036203146,0.2066468894481659,-0.9838636517524719,-0.02691543474793434,-0.012250915169715881,0.023530680686235428,0.0,0.0,0.0,2025-12-11T02:28:41.040114+00:00
13291649574,1,0,0.00708653824403882,0.20469509065151215,-0.9855608344078064,-0.03172561526298523,-0.012783563695847988,0.011819113977253437,0.0,0.0,0.0,2025-12-11T02:28:41.120400+00:00
13358288420,1,0,0.003117470070719719,0.20713482797145844,-0.9854176044464111,-0.03326542302966118,-0.016512103378772736,0.016327567398548126,0.0,0.0,0.0,2025-12-11T02:28:41.199097+00:00
13424961443,1,0,0.0030793973710387945,0.21030652523040771,-0.9802422523498535,-0.035245656967163086,-0.012250915169715881,0.029495716094970703,0.0,0.0,0.0,2025-12-11T02:28:41.278818+00:00
13491609398,1,0,0.0030819259118288755,0.20933061838150024,-0.9805871844291687,-0.03794586658477783,-0.010120321065187454,0.03813876956701279,0.0,0.0,0.0,2025-12-11T02:28:41.278893+00:00
13558282489,1,0,-0.00295467721298337,0.2142101228237152,-0.9808042645454407,-0.03861590474843979,-0.00745707843452692,0.02683434635400772,0.0,0.0,0.0,2025-12-11T02:28:41.359015+00:00
13624957033,1,0,-0.000509043165948242,0.21689383685588837,-0.984926700592041,-0.02458353340625763,0.0005326484679244459,0.013754967600107193,0.0,0.0,0.0,2025-12-11T02:28:41.438887+00:00
13691627190,1,0,0.0003166385577060282,0.21835768222808838,-0.979917585849762,-0.0316479429602623,-0.011185618117451668,0.0012734979391098022,0.0,0.0,0.0,2025-12-11T02:28:41.520229+00:00
13758304439,1,0,0.0006743642734363675,0.21835768222808838,-0.9816402196884155,-0.027507798746228218,-0.02343653328716755,0.0016806414350867271,0.0,0.0,0.0,2025-12-11T02:28:41.599342+00:00
13808292807,1,0,-0.00021486882178578526,0.21860165894031525,-0.9780237674713135,-0.027507798746228218,-0.02343653328716755,0.0016806414350867271,0.0,0.0,0.0,2025-12-11T02:28:41.599416+00:00
13874953776,1,0,-0.0027529855724424124,0.21835768222808838,-0.9847708344459534,-0.042232394218444824,-0.02716507390141487,0.006468633189797401,0.0,0.0,0.0,2025-12-11T02:28:41.679780+00:00
13941627000,1,0,-0.009205808863043785,0.2244570553302765,-0.9753296375274658,-0.041908472776412964,-0.02077329158782959,0.013627362437546253,0.0,0.0,0.0,2025-12-11T02:28:41.760175+00:00
14008280003,1,0,-0.0073145353235304356,0.22762873768806458,-0.9744530320167542,-0.05427898094058037,0.014381510205566883,0.005626607686281204,0.0,0.0,0.0,2025-12-11T02:28:41.842669+00:00
14074953636,1,0,-0.0055360691621899605,0.23616787791252136,-0.9816858172416687,-0.05305200070142746,0.015979453921318054,-0.007547091692686081,0.0,0.0,0.0,2025-12-11T02:28:41.923511+00:00
14141650091,1,0,-0.03276236727833748,0.2537340819835663,-0.9860268831253052,-0.02439703419804573,0.012250915169715881,-0.06270352005958557,0.0,0.0,0.0,2025-12-11T02:28:42.003140+00:00
14208338211,1,0,-0.04692615568637848,0.25080636143684387,-0.9837158918380737,-0.0032033771276474,0.009587673470377922,-0.2810041904449463,0.0,0.0,0.0,2025-12-11T02:28:42.003215+00:00
14258305110,1,0,-0.04041391238570213,0.24861060082912445,-0.9778022170066833,-0.023353561758995056,0.006924430374056101,-0.46006113290786743,0.0,0.0,0.0,2025-12-11T02:28:42.088184+00:00
14325002997,1,0,-0.03262928128242493,0.24275518953800201,-0.9806777238845825,-0.015136420726776123,-0.013848860748112202,-0.5018087029457092,0.0,0.0,0.0,2025-12-11T02:28:42.168425+00:00
14391679497,1,0,-0.004712915979325771,0.2244570553302765,-0.9763316512107849,0.001954182982444763,0.01757740043103695,-0.3675956130027771,0.0,0.0,0.0,2025-12-11T02:28:42.248025+00:00
14458401930,1,0,-0.006611823569983244,0.21957755088806152,-0.9761731624603271,-0.02063160389661789,0.04367717728018761,-0.2159721702337265,0.0,0.0,0.0,2025-12-11T02:28:42.248104+00:00
14525019207,1,0,-0.013486848212778568,0.22177334129810333,-0.979674220085144,-0.01505279541015625,0.06924430280923843,-0.1040661484003067,0.0,0.0,0.0,2025-12-11T02:28:42.328993+00:00
14591691568,1,0,-0.01748635433614254,0.2290925830602646,-0.9753906726837158,-0.01466570608317852,0.07723402976989746,-0.05434555560350418,0.0,0.0,0.0,2025-12-11T02:28:42.397176+00:00
14658313864,1,0,-0.014869467355310917,0.22958053648471832,-0.9793393015861511,-0.01466570608317852,0.07723402976989746,-0.05434555560350418,0.0,0.0,0.0,2025-12-11T02:28:42.476513+00:00
14724956631,1,0,-0.01471348199993372,0.22933655977249146,-0.9770954251289368,-0.01985529251396656,0.0703096017241478,-0.0656832680106163,0.0,0.0,0.0,2025-12-11T02:28:42.556088+00:00
14791668013,1,0,-0.0189843587577343,0.23324015736579895,-0.9828200340270996,-0.03209265321493149,0.06764636188745499,-0.0917622298002243,0.0,0.0,0.0,2025-12-11T02:28:42.635899+00:00
14858353910,1,0,-0.020077859982848167,0.23787568509578705,-0.9748921990394592,-0.03159118443727493,0.07829932868480682,-0.10870775580406189,0.0,0.0,0.0,2025-12-11T02:28:42.715402+00:00
14925022122,1,0,-0.04051806405186653,0.24177928268909454,-0.9636563062667847,-0.03800433874130249,0.12357444316148758,-0.15847274661064148,0.0,0.0,0.0,2025-12-11T02:28:42.715479+00:00
14991696336,1,0,-0.0005751230055466294,0.2390955686569214,-0.9759560823440552,-0.06460780650377274,0.20293907821178436,-0.2795732021331787,0.0,0.0,0.0,2025-12-11T02:28:42.797059+00:00
15058357676,1,0,0.025163428857922554,0.2366558164358139,-0.9804245829582214,-0.059584662318229675,0.1406192034482956,-0.24563772976398468,0.0,0.0,0.0,2025-12-11T02:28:42.879997+00:00
15125044984,1,0,0.039828188717365265,0.23763172328472137,-0.980489194393158,-0.06204758211970329,0.08682170510292053,-0.16693612933158875,0.0,0.0,0.0,2025-12-11T02:28:42.960686+00:00
15175021942,1,0,0.038826100528240204,0.2405594140291214,-0.9849820137023926,-0.042208924889564514,0.0021305938716977835,-0.09899307787418365,0.0,0.0,0.0,2025-12-11T02:28:42.960761+00:00
15241772759,1,0,0.030530335381627083,0.24397505819797516,-0.9829728603363037,-0.035077936947345734,-0.06924430280923843,-0.09555070847272873,0.0,0.0,0.0,2025-12-11T02:28:43.040727+00:00
15308450398,1,0,0.015071353875100613,0.24958650767803192,-0.968767523765564,-0.05570654943585396,-0.052199553698301315,-0.10737878084182739,0.0,0.0,0.0,2025-12-11T02:28:43.114608+00:00
15375158806,1,0,0.011321822181344032,0.25007444620132446,-0.9750059843063354,-0.05556570738554001,-0.028230370953679085,-0.07536253333091736,0.0,0.0,0.0,2025-12-11T02:28:43.194254+00:00
15441807933,1,0,0.013670938089489937,0.2544659972190857,-0.9660175442695618,-0.07481326907873154,-0.0021305938716977835,-0.019006861373782158,0.0,0.0,0.0,2025-12-11T02:28:43.274845+00:00
15508464745,1,0,0.008475235663354397,0.2581256330013275,-0.9632954001426697,-0.10858015716075897,0.01491415686905384,0.014266245067119598,0.0,0.0,0.0,2025-12-11T02:28:43.353842+00:00
15575147104,1,0,0.013052004389464855,0.2642250061035156,-0.9756832122802734,-0.06836683303117752,0.02024064213037491,0.02623857371509075,0.0,0.0,0.0,2025-12-11T02:28:43.433386+00:00
15625096009,1,0,0.0060828933492302895,0.27349603176116943,-0.9664183855056763,-0.06836683303117752,0.02024064213037491,0.02623857371509075,0.0,0.0,0.0,2025-12-11T02:28:43.433460+00:00
15691768409,1,0,0.01161604467779398,0.27569183707237244,-0.9681029319763184,-0.08597131073474884,0.0005326484679244459,0.012926172465085983,0.0,0.0,0.0,2025-12-11T02:28:43.516113+00:00
15758456259,1,0,0.01643870584666729,0.2783755362033844,-0.967032253742218,-0.0840909332036972,-0.022903883829712868,0.013316668570041656,0.0,0.0,0.0,2025-12-11T02:28:43.596616+00:00
15825125534,1,0,0.016032695770263672,0.28105929493904114,-0.9587542414665222,-0.09736791253089905,-0.0410139337182045,0.07724930346012115,0.0,0.0,0.0,2025-12-11T02:28:43.676189+00:00
15891807371,1,0,0.00427651684731245,0.29033032059669495,-0.9553903341293335,-0.12775900959968567,-0.05646074190735817,0.11243052780628204,0.0,0.0,0.0,2025-12-11T02:28:43.676264+00:00
15958475694,1,0,-0.007293238304555416,0.3044808804988861,-0.9539229273796082,-0.17302662134170532,-0.05379749834537506,0.12189000099897385,0.0,0.0,0.0,2025-12-11T02:28:43.757323+00:00
16025155489,1,0,0.0004406294028740376,0.3122880756855011,-0.9498979449272156,-0.24944627285003662,-0.05752604082226753,0.11643068492412567,0.0,0.0,0.0,2025-12-11T02:28:43.832926+00:00
16075186456,1,0,-0.004548275377601385,0.31814348697662354,-0.9518324136734009,-0.27425387501716614,-0.06285252422094345,0.10946829617023468,0.0,0.0,0.0,2025-12-11T02:28:43.911574+00:00
16141787683,1,0,-0.003807442495599389,0.33253800868988037,-0.9587277770042419,-0.1816696673631668,-0.05060160532593727,0.1191897988319397,0.0,0.0,0.0,2025-12-11T02:28:43.991731+00:00
16208510919,1,0,-0.018216149881482124,0.360595166683197,-0.946584939956665,-0.14981645345687866,-0.0351548008620739,0.0900457352399826,0.0,0.0,0.0,2025-12-11T02:28:44.074411+00:00
16275301070,1,0,-0.012926409021019936,0.3671824634075165,-0.9620729088783264,-0.14981645345687866,-0.0351548008620739,0.0900457352399826,0.0,0.0,0.0,2025-12-11T02:28:44.074490+00:00
16341957732,1,0,-0.020797444507479668,0.3771854639053345,-0.9474666118621826,-0.09468989074230194,-0.03888333961367607,0.07161928713321686,0.0,0.0,0.0,2025-12-11T02:28:44.153793+00:00
16408609483,1,0,-0.020843151956796646,0.38206496834754944,-0.9412561655044556,-0.005082038231194019,-0.019707994535565376,0.025198090821504593,0.0,0.0,0.0,2025-12-11T02:28:44.238627+00:00
16475275361,1,0,-0.01202346384525299,0.37181800603866577,-0.9441239833831787,0.0012436225078999996,-0.003195890923961997,-0.015433472581207752,0.0,0.0,0.0,2025-12-11T02:28:44.318261+00:00
16525300037,1,0,-0.009807528927922249,0.37133005261421204,-0.9404847621917725,0.02350635454058647,-0.006391781847923994,-0.02091924287378788,0.0,0.0,0.0,2025-12-11T02:28:44.318334+00:00
16591990543,1,0,-0.00942432414740324,0.3693782389163971,-0.9456575512886047,0.03352276608347893,-0.010120321065187454,-0.00012974068522453308,0.0,0.0,0.0,2025-12-11T02:28:44.398618+00:00
16658620223,1,0,-0.016339512541890144,0.36645054817199707,-0.9905640482902527,0.10714790225028992,-0.0026632423978298903,0.02677800878882408,0.0,0.0,0.0,2025-12-11T02:28:44.477966+00:00
16725275260,1,0,-0.01675310730934143,0.3754776418209076,-0.9812509417533875,0.2802453935146332,-0.015446805395185947,-0.002455681562423706,0.0,0.0,0.0,2025-12-11T02:28:44.547607+00:00
16791946069,1,0,-0.02352101355791092,0.3586433529853821,-0.9290268421173096,0.16608299314975739,-0.017044750973582268,-0.048494476824998856,0.0,0.0,0.0,2025-12-11T02:28:44.626960+00:00
16858623849,1,0,-0.015320210717618465,0.3244868218898773,-0.9415605068206787,0.12175384908914566,-0.0021305938716977835,-0.01303926482796669,0.0,0.0,0.0,2025-12-11T02:28:44.708258+00:00
16925361231,1,0,-0.015662716701626778,0.3154597580432892,-0.9419081211090088,0.09212711453437805,0.011718266643583775,0.02064097672700882,0.0,0.0,0.0,2025-12-11T02:28:44.788384+00:00
16992041726,1,0,-0.016442691907286644,0.30716460943222046,-0.9531277418136597,0.061110373586416245,0.02343653328716755,0.038491711020469666,0.0,0.0,0.0,2025-12-11T02:28:44.788456+00:00
17058678049,1,0,-0.0169589314609766,0.30570077896118164,-0.9533039927482605,0.012605661526322365,0.019707994535565376,0.027211615815758705,0.0,0.0,0.0,2025-12-11T02:28:44.879051+00:00
17125327126,1,0,-0.022347135469317436,0.3069206476211548,-0.971285879611969,0.05094202607870102,0.010652969591319561,-0.01280752569437027,0.0,0.0,0.0,2025-12-11T02:28:44.957719+00:00
17192040814,1,0,-0.014127564616501331,0.30326101183891296,-0.9629443287849426,0.05094202607870102,0.010652969591319561,-0.01280752569437027,0.0,0.0,0.0,2025-12-11T02:28:45.037416+00:00
17258713045,1,0,-0.010128057561814785,0.2898423969745636,-0.9672278761863708,0.02872367948293686,0.011185618117451668,-0.013347822241485119,0.0,0.0,0.0,2025-12-11T02:28:45.117665+00:00
17325370096,1,0,-0.0066854399628937244,0.2927700877189636,-0.9661673903465271,0.043738916516304016,0.010652969591319561,-0.006457537412643433,0.0,0.0,0.0,2025-12-11T02:28:45.117739+00:00
17392047907,1,0,-0.010715433396399021,0.28545081615448,-0.9577435255050659,0.014574801549315453,0.012783563695847988,0.015549981966614723,0.0,0.0,0.0,2025-12-11T02:28:45.197140+00:00
17442021598,1,0,-0.007712910883128643,0.29179418087005615,-0.9672101140022278,0.0075436788611114025,0.019707994535565376,-0.0014510361943393946,0.0,0.0,0.0,2025-12-11T02:28:45.264908+00:00
17508694139,1,0,-0.005713935475796461,0.2876465916633606,-0.9575342535972595,0.01225186139345169,0.015446805395185947,-0.027028530836105347,0.0,0.0,0.0,2025-12-11T02:28:45.344349+00:00
17575405632,1,0,-0.00024535597185604274,0.2861827611923218,-0.9738834500312805,0.005461442284286022,0.004261187743395567,-0.025571946054697037,0.0,0.0,0.0,2025-12-11T02:28:45.424488+00:00
17642068045,1,0,-0.006368412636220455,0.28398698568344116,-0.9623696208000183,8.322065696120262e-05,0.003195890923961997,-0.011298874393105507,0.0,0.0,0.0,2025-12-11T02:28:45.510399+00:00
17708698927,1,0,-0.0044592940248548985,0.2844749093055725,-0.9639082551002502,-0.0161423459649086,0.005859133321791887,-0.007275237236171961,0.0,0.0,0.0,2025-12-11T02:28:45.510476+00:00
17775396725,1,0,-0.00565038388594985,0.28423094749450684,-0.9661598205566406,-0.01195781584829092,-0.0026632423978298903,-0.012894160114228725,0.0,0.0,0.0,2025-12-11T02:28:45.590554+00:00
17842041013,1,0,-0.0030589269008487463,0.2891104519367218,-0.9666582345962524,-1.6644131392240524e-05,-0.009587673470377922,0.0022597748320549726,0.0,0.0,0.0,2025-12-11T02:28:45.673862+00:00
17892026225,1,0,-0.0016864698845893145,0.28545081615448,-0.9656130075454712,-1.6644131392240524e-05,-0.009587673470377922,0.0022597748320549726,0.0,0.0,0.0,2025-12-11T02:28:45.753900+00:00
17958693296,1,0,-0.015671323984861374,0.2876465916633606,-0.9641633629798889,-0.005779816769063473,-0.013848860748112202,0.017659958451986313,0.0,0.0,0.0,2025-12-11T02:28:45.753975+00:00
18025384331,1,0,-0.014163205400109291,0.29106226563453674,-0.9581140279769897,-0.011661633849143982,-0.012783563695847988,-0.0019691409543156624,0.0,0.0,0.0,2025-12-11T02:28:45.837715+00:00
18092027106,1,0,-0.014628584496676922,0.28642672300338745,-0.9651907682418823,-0.019205313175916672,0.0005326484679244459,-0.0005181040614843369,0.0,0.0,0.0,2025-12-11T02:28:45.918299+00:00
18158724984,1,0,-0.013233274221420288,0.2927700877189636,-0.9672508239746094,-0.015372443944215775,0.0,-0.009529463946819305,0.0,0.0,0.0,2025-12-11T02:28:45.980944+00:00
18225891650,1,0,-0.010334854945540428,0.29033032059669495,-0.962571382522583,-0.00373855116777122,0.005859133321791887,-0.00379403168335557,0.0,0.0,0.0,2025-12-11T02:28:46.060643+00:00
18292558420,1,0,-0.009435459040105343,0.28642672300338745,-0.9675678610801697,-0.007560322992503643,0.0015979454619809985,0.0037108107935637236,0.0,0.0,0.0,2025-12-11T02:28:46.143291+00:00
18342575271,1,0,-0.008758129552006721,0.28496289253234863,-0.9658376574516296,-0.00040714337956160307,-0.0021305938716977835,0.004140146542340517,0.0,0.0,0.0,2025-12-11T02:28:46.143381+00:00
18409233205,1,0,-0.013759676367044449,0.2869146764278412,-0.9660470485687256,0.0011548536131158471,-0.0015979454619809985,-0.0033813402988016605,0.0,0.0,0.0,2025-12-11T02:28:46.223193+00:00
18475915373,1,0,-0.011175901629030704,0.2876465916633606,-0.9655104279518127,-0.007169823627918959,-0.0015979454619809985,0.0018304393161088228,0.0,0.0,0.0,2025-12-11T02:28:46.288947+00:00
18542591362,1,0,-0.013243485242128372,0.2876465916633606,-0.96587073802948,-0.000473720021545887,0.012250915169715881,0.01317924726754427,0.0,0.0,0.0,2025-12-11T02:28:46.387976+00:00
18609253462,1,0,-0.009624509140849113,0.2883785367012024,-0.9653264880180359,0.00439749239012599,0.0026632423978298903,0.016604971140623093,0.0,0.0,0.0,2025-12-11T02:28:46.466531+00:00
18675934819,1,0,-0.012906084768474102,0.2876465916633606,-0.9648330807685852,-0.01200219988822937,-0.0053264847956597805,-0.006868093274533749,0.0,0.0,0.0,2025-12-11T02:28:46.466606+00:00
18742632417,1,0,-0.009810981340706348,0.28252312541007996,-0.9634301662445068,-0.009016906842589378,0.0026632423978298903,-0.003079609479755163,0.0,0.0,0.0,2025-12-11T02:28:46.546142+00:00
18792577033,1,0,-0.010130634531378746,0.28569480776786804,-0.9668828845024109,-0.009016906842589378,0.0026632423978298903,-0.003079609479755163,0.0,0.0,0.0,2025-12-11T02:28:46.625773+00:00
18859285651,1,0,-0.011357268318533897,0.2834990322589874,-0.9643040299415588,-0.0030352252069860697,0.0005326484679244459,0.002990840934216976,0.0,0.0,0.0,2025-12-11T02:28:46.698619+00:00
18925908610,1,0,-0.014986407943069935,0.2834990322589874,-0.9634681940078735,-0.006377729121595621,0.00372853921726346,-0.0034368205815553665,0.0,0.0,0.0,2025-12-11T02:28:46.778284+00:00
18992602231,1,0,-0.010506108403205872,0.28471890091896057,-0.962745189666748,-0.004782444331794977,0.0021305938716977835,-0.015477857552468777,0.0,0.0,0.0,2025-12-11T02:28:46.778356+00:00
19059304075,1,0,-0.008763235062360764,0.2852068543434143,-0.9651475548744202,-0.011187913827598095,0.0015979454619809985,-0.015148386359214783,0.0,0.0,0.0,2025-12-11T02:28:46.857705+00:00
19125945508,1,0,-0.010624021291732788,0.28398698568344116,-0.97016441822052,-0.005233971402049065,0.00745707843452692,-0.005311644170433283,0.0,0.0,0.0,2025-12-11T02:28:46.937112+00:00
19192610395,1,0,-0.011183535680174828,0.2852068543434143,-0.9644753932952881,-0.0003572109853848815,0.0005326484679244459,-0.002639177953824401,0.0,0.0,0.0,2025-12-11T02:28:47.004851+00:00
19242600406,1,0,-0.012006640434265137,0.28398698568344116,-0.9698295593261719,-0.0007643543649464846,0.0021305938716977835,0.0015009684721007943,0.0,0.0,0.0,2025-12-11T02:28:47.085122+00:00
19309229185,1,0,-0.012586431577801704,0.280571311712265,-0.9613803029060364,-0.010110732167959213,0.009587673470377922,-0.007984110154211521,0.0,0.0,0.0,2025-12-11T02:28:47.164595+00:00
19375945017,1,0,-0.01372670941054821,0.28398698568344116,-0.9705322980880737,-0.014893176034092903,0.00372853921726346,-0.023461967706680298,0.0,0.0,0.0,2025-12-11T02:28:47.164670+00:00
19442609693,1,0,-0.008088481612503529,0.2837430238723755,-0.9630722999572754,-0.002583697671070695,0.010120321065187454,-0.00717537198215723,0.0,0.0,0.0,2025-12-11T02:28:47.245427+00:00
19509205079,1,0,-0.00875560101121664,0.280571311712265,-0.9661827087402344,-0.002583697671070695,0.010120321065187454,-0.00717537198215723,0.0,0.0,0.0,2025-12-11T02:28:47.324996+00:00
19575927715,1,0,-0.010986852459609509,0.2830110788345337,-0.9677518010139465,-0.0011049212189391255,0.004261187743395567,-0.003397984430193901,0.0,0.0,0.0,2025-12-11T02:28:47.413059+00:00
19642699059,1,0,-0.006207321770489216,0.27935144305229187,-0.9608157873153687,0.002276418963447213,0.004793836735188961,-0.002243130700662732,0.0,0.0,0.0,2025-12-11T02:28:47.493561+00:00
19692706513,1,0,0.09580174088478088,0.2290925830602646,-0.96748286485672,0.038385890424251556,0.01757740043103695,0.2089466005563736,0.0,0.0,0.0,2025-12-11T02:28:47.493639+00:00
19759372972,1,0,0.07141536474227905,0.2444630265235901,-0.9592088460922241,-0.01786312460899353,0.09694202244281769,0.7377249598503113,0.0,0.0,0.0,2025-12-11T02:28:47.573117+00:00
19825991502,1,0,0.04106595739722252,0.29496586322784424,-0.9611576795578003,-0.07576242089271545,0.09108289331197739,1.0303318500518799,0.0,0.0,0.0,2025-12-11T02:28:47.652816+00:00
19892677027,1,0,0.0270419642329216,0.3083844780921936,-0.9778229594230652,-0.08130452036857605,0.037285394966602325,0.8623053431510925,0.0,0.0,0.0,2025-12-11T02:28:47.720298+00:00
19959369966,1,0,0.037218935787677765,0.3127760589122772,-0.977575421333313,-0.05765905976295471,-0.05433014780282974,0.5668095350265503,0.0,0.0,0.0,2025-12-11T02:28:47.799820+00:00
20026007593,1,0,0.03310404717922211,0.31326398253440857,-0.9810562133789062,-0.044434964656829834,-0.12357444316148758,0.3055121898651123,0.0,0.0,0.0,2025-12-11T02:28:47.880468+00:00
20092660195,1,0,0.029056254774332047,0.31180015206336975,-0.9702172875404358,-0.02413327619433403,-0.11451942473649979,0.10603742301464081,0.0,0.0,0.0,2025-12-11T02:28:47.880543+00:00
20159386647,1,0,0.0295292679220438,0.29935741424560547,-0.9641754627227783,-0.016192279756069183,-0.07776667922735214,-0.0004959125071763992,0.0,0.0,0.0,2025-12-11T02:28:47.959977+00:00
20226060150,1,0,0.01428218837827444,0.306188702583313,-0.9553167223930359,-0.02561163902282715,-0.02077329158782959,-0.1534850150346756,0.0,0.0,0.0,2025-12-11T02:28:48.039549+00:00
20292720768,1,0,-0.028843184933066368,0.3208272159099579,-0.9559794664382935,-0.05050501227378845,0.039948634803295135,-0.6090377569198608,0.0,0.0,0.0,2025-12-11T02:28:48.119209+00:00
20359390544,1,0,-0.20510607957839966,0.42817622423171997,-0.9398529529571533,-0.18621701002120972,0.048471011221408844,-1.8714367151260376,0.0,0.0,0.0,2025-12-11T02:28:48.205790+00:00
20426004305,1,0,-0.20851877331733704,0.45208579301834106,-0.8981280326843262,-0.18621701002120972,0.048471011221408844,-1.8714367151260376,0.0,0.0,0.0,2025-12-11T02:28:48.288826+00:00
20492677217,1,0,0.04940592125058174,0.3159477114677429,-0.9457417726516724,-0.45036232471466064,0.018642697483301163,-2.469618320465088,0.0,0.0,0.0,2025-12-11T02:28:48.288901+00:00
20559397707,1,0,0.08622084558010101,0.27252015471458435,-0.9549593329429626,-0.4689745306968689,0.16192513704299927,-1.6302037239074707,0.0,0.0,0.0,2025-12-11T02:28:48.366684+00:00
20609378160,1,0,0.03897805139422417,0.3283904194831848,-0.9587576389312744,-0.28062695264816284,0.23223474621772766,-0.7128046751022339,0.0,0.0,0.0,2025-12-11T02:28:48.446872+00:00
20676048827,1,0,-0.028953464701771736,0.384016752243042,-0.9644337892532349,-0.1296001374721527,0.1699148714542389,-0.1489778608083725,0.0,0.0,0.0,2025-12-11T02:28:48.525582+00:00
20742695981,1,0,-0.043534934520721436,0.38108906149864197,-0.9288292527198792,-0.08283281326293945,0.11878061294555664,-0.05522428825497627,0.0,0.0,0.0,2025-12-11T02:28:48.605099+00:00
20809390723,1,0,-0.019475799053907394,0.3823089301586151,-0.9395208358764648,-0.05742175132036209,0.1022685095667839,-0.02791834995150566,0.0,0.0,0.0,2025-12-11T02:28:48.605174+00:00
20876059927,1,0,0.048453137278556824,0.360595166683197,-0.9334998726844788,-0.00856579840183258,0.03355685621500015,0.2424992471933365,0.0,0.0,0.0,2025-12-11T02:28:48.686440+00:00
20942691171,1,0,0.06318149715662003,0.35254397988319397,-0.9421899318695068,0.12046629190444946,-0.0292956680059433,1.0822482109069824,0.0,0.0,0.0,2025-12-11T02:28:48.766191+00:00
21009555831,1,0,0.23934264481067657,0.31253206729888916,-0.9445154070854187,0.31635361909866333,0.043144527822732925,2.305542230606079,0.0,0.0,0.0,2025-12-11T02:28:48.846682+00:00
21059684642,1,0,0.06662158668041229,0.47428756952285767,-0.9407845139503479,0.32856833934783936,0.025567127391695976,1.9255927801132202,0.0,0.0,0.0,2025-12-11T02:28:48.846778+00:00
21126585270,1,0,-0.051651325076818466,0.47697123885154724,-0.9746070504188538,0.32856833934783936,0.025567127391695976,1.9255927801132202,0.0,0.0,0.0,2025-12-11T02:28:48.926053+00:00
21193473474,1,0,-0.02456720359623432,0.3886522948741913,-0.950944721698761,0.3809084892272949,-0.15340277552604675,1.0581777095794678,0.0,0.0,0.0,2025-12-11T02:28:49.006387+00:00
21260159700,1,0,0.03208109736442566,0.3108242452144623,-0.935863196849823,0.34530001878738403,-0.16032719612121582,0.4210009276866913,0.0,0.0,0.0,2025-12-11T02:28:49.086218+00:00
21326782248,1,0,0.05170067772269249,0.26690873503685,-0.9527983069419861,0.19884781539440155,-0.1496742218732834,0.10541987419128418,0.0,0.0,0.0,2025-12-11T02:28:49.166208+00:00
21393466410,1,0,0.059306468814611435,0.24861060082912445,-0.9548124670982361,0.11349789053201675,-0.12197650223970413,0.033981118351221085,0.0,0.0,0.0,2025-12-11T02:28:49.246100+00:00
21460159399,1,0,0.05563317984342575,0.24104736745357513,-0.971401572227478,0.06517071276903152,-0.07829932868480682,-0.0014032386243343353,0.0,0.0,0.0,2025-12-11T02:28:49.246177+00:00
21510160271,1,0,0.052661094814538956,0.23324015736579895,-0.9660753011703491,0.06600719690322876,-0.05006895959377289,-0.012696566060185432,0.0,0.0,0.0,2025-12-11T02:28:49.331115+00:00
21576815690,1,0,0.05558236688375473,0.23080040514469147,-0.9645010828971863,0.035810284316539764,-0.04048128426074982,-0.0038793887943029404,0.0,0.0,0.0,2025-12-11T02:28:49.411165+00:00
21643483121,1,0,0.05099952220916748,0.23494799435138702,-0.9747136235237122,0.014741242863237858,-0.034089501947164536,-0.007047766353935003,0.0,0.0,0.0,2025-12-11T02:28:49.492237+00:00
21710151003,1,0,0.04543087258934975,0.23641183972358704,-0.968198835849762,-0.02276632748544216,-0.027697721496224403,-0.028416402637958527,0.0,0.0,0.0,2025-12-11T02:28:49.565293+00:00
21776887164,1,0,0.04821643605828285,0.2327522188425064,-0.971628725528717,-0.05036289244890213,-0.014381510205566883,-0.014683624729514122,0.0,0.0,0.0,2025-12-11T02:28:49.565365+00:00
21843556417,1,0,0.053598660975694656,0.23689977824687958,-0.976247251033783,-0.021955452859401703,-0.00372853921726346,0.014904271811246872,0.0,0.0,0.0,2025-12-11T02:28:49.644979+00:00
21910214010,1,0,0.058257702738046646,0.24251121282577515,-0.9763854146003723,-0.02059873193502426,0.0015979454619809985,0.03525334224104881,0.0,0.0,0.0,2025-12-11T02:28:49.724930+00:00
21960167152,1,0,0.06085937097668648,0.24226725101470947,-0.9782639741897583,-0.02059873193502426,0.0015979454619809985,0.03525334224104881,0.0,0.0,0.0,2025-12-11T02:28:49.804413+00:00
22026861364,1,0,0.05847470834851265,0.24324315786361694,-0.9824220538139343,-0.0227974783629179,-0.0005326484679244459,0.026950856670737267,0.0,0.0,0.0,2025-12-11T02:28:49.873324+00:00
22093528735,1,0,0.0561799556016922,0.239827498793602,-0.9753655791282654,-0.004691539332270622,-0.018642697483301163,0.023317718878388405,0.0,0.0,0.0,2025-12-11T02:28:49.953811+00:00
22160173043,1,0,0.05278056487441063,0.239827498793602,-0.9822914600372314,0.005117462947964668,-0.013848860748112202,0.021130068227648735,0.0,0.0,0.0,2025-12-11T02:28:49.953887+00:00
22226872565,1,0,0.05566118657588959,0.23641183972358704,-0.9751968383789062,0.007482650224119425,-0.006391781847923994,0.006834805011749268,0.0,0.0,0.0,2025-12-11T02:28:50.035747+00:00
22293553943,1,0,0.05292380973696709,0.23543593287467957,-0.9783225059509277,-0.010941663756966591,-0.011718266643583775,0.0025559579953551292,0.0,0.0,0.0,2025-12-11T02:28:50.116480+00:00
22360228997,1,0,0.04805534705519676,0.2373877465724945,-0.9731825590133667,0.001406651921570301,-0.011718266643583775,0.013569745235145092,0.0,0.0,0.0,2025-12-11T02:28:50.196283+00:00
22410246421,1,0,0.04596996679902077,0.23860763013362885,-0.9711277484893799,-0.002963100792840123,-0.014381510205566883,-0.0068015167489647865,0.0,0.0,0.0,2025-12-11T02:28:50.196367+00:00
22476881069,1,0,0.05102748051285744,0.2366558164358139,-0.9785089492797852,-0.006399921607226133,-0.019707994535565376,-0.0004237878601998091,0.0,0.0,0.0,2025-12-11T02:28:50.281194+00:00
22543547549,1,0,0.050682444125413895,0.23494799435138702,-0.9785114526748657,-0.007253045216202736,-0.01757740043103695,0.013129313476383686,0.0,0.0,0.0,2025-12-11T02:28:50.364431+00:00
22610239616,1,0,0.03995369002223015,0.23616787791252136,-0.9741049408912659,-0.01281648688018322,-0.011185618117451668,0.0014121998101472855,0.0,0.0,0.0,2025-12-11T02:28:50.441335+00:00
22676910634,1,0,0.03979259729385376,0.23787568509578705,-0.9756588935852051,-0.011199009604752064,0.0021305938716977835,-0.013641870580613613,0.0,0.0,0.0,2025-12-11T02:28:50.521555+00:00
22743567576,1,0,0.03526153415441513,0.2390955686569214,-0.9694814085960388,-0.011199009604752064,0.0021305938716977835,-0.013641870580613613,0.0,0.0,0.0,2025-12-11T02:28:50.589048+00:00
22810227102,1,0,0.0444847010076046,0.23787568509578705,-0.9802823662757874,-0.039116084575653076,0.004793836735188961,-0.05866878852248192,0.0,0.0,0.0,2025-12-11T02:28:50.668495+00:00
22860232472,1,0,0.04600555822253227,0.23714378476142883,-0.9759580492973328,-0.03325645998120308,0.011185618117451668,-0.03602665662765503,0.0,0.0,0.0,2025-12-11T02:28:50.668571+00:00
22926920242,1,0,0.03925350308418274,0.24153532087802887,-0.9727298617362976,-0.05369430035352707,0.025034479796886444,-0.022617807611823082,0.0,0.0,0.0,2025-12-11T02:28:50.749019+00:00
22993572054,1,0,0.04161273315548897,0.2459268718957901,-0.9651216268539429,-0.05692030116915703,0.022903883829712868,-0.04486389085650444,0.0,0.0,0.0,2025-12-11T02:28:50.828528+00:00
23060268549,1,0,0.03494703397154808,0.2573936879634857,-0.9736242890357971,-0.067008838057518,0.014381510205566883,-0.055861033499240875,0.0,0.0,0.0,2025-12-11T02:28:50.908198+00:00
23126913589,1,0,-0.043727483600378036,0.3091164231300354,-0.9495332837104797,-0.14461749792099,0.04953631013631821,-0.20671585202217102,0.0,0.0,0.0,2025-12-11T02:28:50.989190+00:00
23193569909,1,0,-0.10987703502178192,0.34351688623428345,-0.9394965767860413,-0.34514811635017395,0.119845911860466,-1.055277705192566,0.0,0.0,0.0,2025-12-11T02:28:50.989290+00:00
23260257658,1,0,-0.031185640022158623,0.3266826272010803,-0.9892932176589966,-0.23292458057403564,-0.01811004988849163,-1.2062408924102783,0.0,0.0,0.0,2025-12-11T02:28:51.071160+00:00
23310266716,1,0,0.17294178903102875,0.2281166911125183,-1.0174633264541626,-0.029939137399196625,0.03941598907113075,-0.2307300567626953,0.0,0.0,0.0,2025-12-11T02:28:51.151064+00:00
23376912015,1,0,0.2168973684310913,0.22323718667030334,-0.9655558466911316,-0.029939137399196625,0.03941598907113075,-0.2307300567626953,0.0,0.0,0.0,2025-12-11T02:28:51.230521+00:00
23443573175,1,0,0.12551188468933105,0.28398698568344116,-0.9724395871162415,-0.021305471658706665,0.09321349114179611,0.7448559403419495,0.0,0.0,0.0,2025-12-11T02:28:51.230615+00:00
23510275972,1,0,0.03474023938179016,0.3291223645210266,-0.9689677357673645,0.02022874355316162,0.06604841351509094,0.9865942597389221,0.0,0.0,0.0,2025-12-11T02:28:51.306309+00:00
23576951508,1,0,0.010197783820331097,0.31326398253440857,-0.9629377126693726,0.06411787867546082,-0.026099776849150658,0.7040536403656006,0.0,0.0,0.0,2025-12-11T02:28:51.386201+00:00
23643637135,1,0,0.012483349069952965,0.31180015206336975,-0.9453238248825073,0.0014271587133407593,-0.07403814047574997,0.3687504529953003,0.0,0.0,0.0,2025-12-11T02:28:51.466915+00:00
23710301279,1,0,0.03247086703777313,0.30740857124328613,-0.9653614163398743,-0.05020327866077423,-0.0729728415608406,0.06592055410146713,0.0,0.0,0.0,2025-12-11T02:28:51.546903+00:00
23776944825,1,0,0.0564766600728035,0.29569777846336365,-0.968807578086853,-0.01720288395881653,-0.052732203155756,-0.016699286177754402,0.0,0.0,0.0,2025-12-11T02:28:51.626866+00:00
23843744734,1,0,0.049177829176187515,0.28789058327674866,-0.9616155624389648,0.014037917368113995,-0.011185618117451668,-0.013832639902830124,0.0,0.0,0.0,2025-12-11T02:28:51.713783+00:00
23910452591,1,0,0.05665048956871033,0.2830110788345337,-0.9689788222312927,-0.005073077976703644,-0.01491415686905384,-0.027156133204698563,0.0,0.0,0.0,2025-12-11T02:28:51.713858+00:00
23977164135,1,0,0.05442434176802635,0.28398698568344116,-0.9712380170822144,0.04645021632313728,-0.02077329158782959,-0.01660710573196411,0.0,0.0,0.0,2025-12-11T02:28:51.793425+00:00
24043853918,1,0,0.05869264155626297,0.2781315743923187,-0.9651684165000916,0.04985374957323074,-0.025034479796886444,-0.018465284258127213,0.0,0.0,0.0,2025-12-11T02:28:51.876651+00:00
24110484521,1,0,0.049563512206077576,0.2813032567501068,-0.9671334028244019,0.061828210949897766,-0.02982831373810768,-0.007830899208784103,0.0,0.0,0.0,2025-12-11T02:28:51.959209+00:00
24177156652,1,0,0.04817325994372368,0.280571311712265,-0.9657633304595947,0.0685853362083435,-0.028763020411133766,-0.00476793572306633,0.0,0.0,0.0,2025-12-11T02:28:52.041468+00:00
24227209239,1,0,0.04353955015540123,0.27569183707237244,-0.9690754413604736,0.07956583797931671,-0.019175346940755844,-0.012596700340509415,0.0,0.0,0.0,2025-12-11T02:28:52.041568+00:00
24293847676,1,0,0.042501967400312424,0.2705683410167694,-0.9687379598617554,0.0912940502166748,0.005859133321791887,-0.019666660577058792,0.0,0.0,0.0,2025-12-11T02:28:52.123712+00:00
24360520457,1,0,0.04412444680929184,0.26398104429244995,-0.9782147407531738,0.0912940502166748,0.005859133321791887,-0.019666660577058792,0.0,0.0,0.0,2025-12-11T02:28:52.203267+00:00
24427314556,1,0,0.0483546257019043,0.2566617727279663,-0.9669697284698486,0.07443173229694366,0.009055024944245815,-0.031466998159885406,0.0,0.0,0.0,2025-12-11T02:28:52.282863+00:00
24493960396,1,0,0.05429631471633911,0.24934253096580505,-0.9772771596908569,0.06124693900346756,0.0,-0.031187456101179123,0.0,0.0,0.0,2025-12-11T02:28:52.282941+00:00
24560627236,1,0,0.0480833537876606,0.24568291008472443,-0.9769779443740845,0.06300525367259979,-0.006391781847923994,-0.014225276187062263,0.0,0.0,0.0,2025-12-11T02:28:52.363427+00:00
24627335294,1,0,0.04353702440857887,0.23787568509578705,-0.9687303900718689,0.039236005395650864,-0.013848860748112202,-0.00875060074031353,0.0,0.0,0.0,2025-12-11T02:28:52.442925+00:00
24677340974,1,0,0.040850553661584854,0.23714378476142883,-0.9787564277648926,0.026793375611305237,-0.006924430374056101,-0.006958997808396816,0.0,0.0,0.0,2025-12-11T02:28:52.523035+00:00
24744041367,1,0,0.03978496417403221,0.23421606421470642,-0.9746237993240356,0.036585733294487,0.0005326484679244459,-0.006886872462928295,0.0,0.0,0.0,2025-12-11T02:28:52.608256+00:00
24810644008,1,0,0.03790895640850067,0.23299618065357208,-0.9775704145431519,0.020498866215348244,0.003195890923961997,-0.021694691851735115,0.0,0.0,0.0,2025-12-11T02:28:52.608334+00:00
24877383573,1,0,0.03996637836098671,0.23006848990917206,-0.9758300185203552,0.00735290814191103,0.0005326484679244459,-0.02668796107172966,0.0,0.0,0.0,2025-12-11T02:28:52.689917+00:00
24944057126,1,0,0.043381039053201675,0.2273847758769989,-0.9709742665290833,-0.0059372978284955025,0.011185618117451668,-0.012096516788005829,0.0,0.0,0.0,2025-12-11T02:28:52.772806+00:00
25010735808,1,0,0.03810306265950203,0.2288486212491989,-0.9805018305778503,0.0013268422335386276,0.016512103378772736,-0.026732347905635834,0.0,0.0,0.0,2025-12-11T02:28:52.854936+00:00
25077382090,1,0,0.042545147240161896,0.23226428031921387,-0.9746033549308777,-0.01369393803179264,0.009055024944245815,-0.0328693762421608,0.0,0.0,0.0,2025-12-11T02:28:52.957916+00:00
25127349038,1,0,0.04688715934753418,0.2305564433336258,-0.9785393476486206,-0.01369393803179264,0.009055024944245815,-0.0328693762421608,0.0,0.0,0.0,2025-12-11T02:28:52.957992+00:00
25193998105,1,0,0.047597553580999374,0.23177631199359894,-0.9812945127487183,0.00424001133069396,0.00745707843452692,-0.013151505962014198,0.0,0.0,0.0,2025-12-11T02:28:53.025533+00:00
25260686545,1,0,0.04152025282382965,0.2320202887058258,-0.9759910702705383,0.011404288932681084,0.004793836735188961,-0.01422868762165308,0.0,0.0,0.0,2025-12-11T02:28:53.115281+00:00
25327363424,1,0,0.041034452617168427,0.2281166911125183,-0.9803076982498169,0.004373163916170597,0.006924430374056101,-0.03122970461845398,0.0,0.0,0.0,2025-12-11T02:28:53.115357+00:00
25394012142,1,0,0.04068435728549957,0.22762873768806458,-0.9796201586723328,0.00019418168812990189,-0.010120321065187454,-0.0263640396296978,0.0,0.0,0.0,2025-12-11T02:28:53.195881+00:00
25460756206,1,0,0.03757408633828163,0.22714078426361084,-0.9789530634880066,0.015370307490229607,-0.0053264847956597805,-0.041318245232105255,0.0,0.0,0.0,2025-12-11T02:28:53.276375+00:00
25527408969,1,0,0.03602784499526024,0.2259209007024765,-0.9798270463943481,-0.0025580916553735733,-0.00372853921726346,-0.061789371073246,0.0,0.0,0.0,2025-12-11T02:28:53.354574+00:00
25577413147,1,0,0.035682812333106995,0.22470103204250336,-0.9798296689987183,-0.005883954465389252,-0.006391781847923994,-0.07047680765390396,0.0,0.0,0.0,2025-12-11T02:28:53.433751+00:00
25644089044,1,0,0.03756139427423477,0.22396911680698395,-0.9772278666496277,-0.014621322974562645,0.0005326484679244459,-0.06037162244319916,0.0,0.0,0.0,2025-12-11T02:28:53.433825+00:00
25710727050,1,0,0.034829121083021164,0.22567693889141083,-0.9810435175895691,-0.016485050320625305,0.0010652969358488917,-0.06302189826965332,0.0,0.0,0.0,2025-12-11T02:28:53.513206+00:00
25777406464,1,0,0.030489686876535416,0.22762873768806458,-0.9774525165557861,-0.017412438988685608,-0.006391781847923994,-0.09052415192127228,0.0,0.0,0.0,2025-12-11T02:28:53.593547+00:00
25844191004,1,0,0.03552424907684326,0.22689680755138397,-0.9817284941673279,-0.004025772213935852,-0.012783563695847988,-0.0670732781291008,0.0,0.0,0.0,2025-12-11T02:28:53.673551+00:00
25910722842,1,0,0.040155429393053055,0.22372515499591827,-0.978071391582489,-0.004025772213935852,-0.012783563695847988,-0.0670732781291008,0.0,0.0,0.0,2025-12-11T02:28:53.756102+00:00
25977417645,1,0,0.04135920852422714,0.21786974370479584,-0.977544903755188,-0.026397328823804855,-0.0026632423978298903,0.004325368441641331,0.0,0.0,0.0,2025-12-11T02:28:53.837525+00:00
26044046715,1,0,0.04499593377113342,0.22372515499591827,-0.9794159531593323,-0.03918394073843956,-0.004261187743395567,0.05281898379325867,0.0,0.0,0.0,2025-12-11T02:28:53.837602+00:00
26110719876,1,0,0.03860919177532196,0.22982452809810638,-0.9789454936981201,-0.03673339635133743,-0.011185618117451668,0.07807255536317825,0.0,0.0,0.0,2025-12-11T02:28:53.917129+00:00
26177390473,1,0,0.041029393672943115,0.23153233528137207,-0.9796176552772522,-0.018453329801559448,-0.01757740043103695,0.10193611681461334,0.0,0.0,0.0,2025-12-11T02:28:53.996842+00:00
26244065539,1,0,0.02934940904378891,0.23397208750247955,-0.9866045117378235,-0.010150846093893051,-0.022371236234903336,0.09973736852407455,0.0,0.0,0.0,2025-12-11T02:28:54.070824+00:00
26310718422,1,0,0.030870266258716583,0.22836065292358398,-0.9822803139686584,0.017551131546497345,-0.02716507390141487,0.07169269025325775,0.0,0.0,0.0,2025-12-11T02:28:54.189149+00:00
26377421751,1,0,0.029293539002537727,0.22372515499591827,-0.9790140390396118,0.03867565467953682,-0.030893610790371895,0.06732849031686783,0.0,0.0,0.0,2025-12-11T02:28:54.323802+00:00
26444113679,1,0,0.027875328436493874,0.2212854027748108,-0.9738489389419556,0.015748433768749237,-0.016512103378772736,0.06075657904148102,0.0,0.0,0.0,2025-12-11T02:28:54.323908+00:00
26494086146,1,0,0.026326512917876244,0.22494502365589142,-0.9743777513504028,0.009938743896782398,-0.012250915169715881,0.03133511543273926,0.0,0.0,0.0,2025-12-11T02:28:54.323966+00:00
26560743649,1,0,0.026203591376543045,0.22421309351921082,-0.9811071157455444,0.002237582579255104,-0.026099776849150658,0.0030296770855784416,0.0,0.0,0.0,2025-12-11T02:28:54.428115+00:00
26627464090,1,0,0.021549509838223457,0.22226127982139587,-0.9816588759422302,-0.0033092154189944267,-0.02024064213037491,-0.010947211645543575,0.0,0.0,0.0,2025-12-11T02:28:54.526308+00:00
26694132392,1,0,0.021373199298977852,0.22104139626026154,-0.9811425805091858,0.0008198348805308342,-0.012250915169715881,-0.009033551439642906,0.0,0.0,0.0,2025-12-11T02:28:54.526387+00:00
26760775498,1,0,0.016525158658623695,0.22177334129810333,-0.9787630438804626,-0.003677522297948599,-0.006924430374056101,-0.012079872190952301,0.0,0.0,0.0,2025-12-11T02:28:54.615636+00:00
26827466695,1,0,0.015311166644096375,0.21957755088806152,-0.9779093861579895,-0.0059095569886267185,0.0021305938716977835,-0.015862807631492615,0.0,0.0,0.0,2025-12-11T02:28:54.685314+00:00
26894083301,1,0,0.016558125615119934,0.21860165894031525,-0.9832482933998108,-0.0059095569886267185,0.0021305938716977835,-0.015862807631492615,0.0,0.0,0.0,2025-12-11T02:28:54.685398+00:00
26944092427,1,0,0.017041398212313652,0.2251890003681183,-0.9785866141319275,-0.00920212920755148,0.003195890923961997,-0.029069796204566956,0.0,0.0,0.0,2025-12-11T02:28:54.775775+00:00
27010791988,1,0,0.025715261697769165,0.22396911680698395,-0.9850786924362183,-0.01628318428993225,0.022371236234903336,-0.03929148614406586,0.0,0.0,0.0,2025-12-11T02:28:54.873219+00:00
27077482192,1,0,0.023936795070767403,0.2227492481470108,-0.9778457880020142,-0.0009329309687018394,0.011718266643583775,-0.02674899250268936,0.0,0.0,0.0,2025-12-11T02:28:54.873302+00:00
27144155985,1,0,0.02620106190443039,0.22030949592590332,-0.9807620644569397,-0.0051008183509111404,0.013316212221980095,-0.023389842361211777,0.0,0.0,0.0,2025-12-11T02:28:54.957334+00:00
27210795434,1,0,0.028830640017986298,0.21957755088806152,-0.9864358901977539,-0.006640624720603228,0.02396918088197708,-0.01888139173388481,0.0,0.0,0.0,2025-12-11T02:28:55.038383+00:00
27277513199,1,0,0.026556210592389107,0.2181137055158615,-0.9821395874023438,-0.0009939605370163918,0.009055024944245815,-0.018463149666786194,0.0,0.0,0.0,2025-12-11T02:28:55.117813+00:00
27344212510,1,0,0.029109546914696693,0.2166498601436615,-0.977462649345398,0.0020079766400158405,0.009587673470377922,-0.016934441402554512,0.0,0.0,0.0,2025-12-11T02:28:55.197004+00:00
27394199497,1,0,0.026369690895080566,0.21469806134700775,-0.9802431464195251,0.0027057540137320757,0.010652969591319561,-0.009396310895681381,0.0,0.0,0.0,2025-12-11T02:28:55.197088+00:00
27460858020,1,0,0.02414354495704174,0.2188456505537033,-0.9825024008750916,0.015644298866391182,0.012250915169715881,-0.027380190789699554,0.0,0.0,0.0,2025-12-11T02:28:55.276594+00:00
27527505795,1,0,0.02671987935900688,0.21469806134700775,-0.9809306859970093,0.015644298866391182,0.012250915169715881,-0.027380190789699554,0.0,0.0,0.0,2025-12-11T02:28:55.356791+00:00
27594180250,1,0,0.028618738055229187,0.2120143324136734,-0.981089174747467,0.008474473841488361,0.0053264847956597805,-0.02554975263774395,0.0,0.0,0.0,2025-12-11T02:28:55.436761+00:00
27660832492,1,0,0.02222178317606449,0.21469806134700775,-0.9792385697364807,0.003860608208924532,0.006391781847923994,-0.012777650728821754,0.0,0.0,0.0,2025-12-11T02:28:55.517158+00:00
27727494153,1,0,0.020683227106928825,0.21469806134700775,-0.9811477661132812,-0.011495191603899002,0.0053264847956597805,-0.0245668888092041,0.0,0.0,0.0,2025-12-11T02:28:55.517241+00:00
27794157987,1,0,0.022053156048059464,0.2166498601436615,-0.9797574877738953,-0.02002173289656639,0.008522375486791134,-0.04308551922440529,0.0,0.0,0.0,2025-12-11T02:28:55.602735+00:00
27860820129,1,0,0.02723611891269684,0.2159179300069809,-0.9807543754577637,-0.01508394442498684,0.009587673470377922,-0.048698894679546356,0.0,0.0,0.0,2025-12-11T02:28:55.682425+00:00
27927496306,1,0,0.025375332683324814,0.22030949592590332,-0.9857711791992188,0.004885723814368248,0.01757740043103695,-0.049681760370731354,0.0,0.0,0.0,2025-12-11T02:28:55.762904+00:00
27994173176,1,0,0.032585229724645615,0.21396614611148834,-0.9808875322341919,0.009806867688894272,0.021305939182639122,-0.05303535982966423,0.0,0.0,0.0,2025-12-11T02:28:55.914115+00:00
28060903464,1,0,0.029165513813495636,0.21372215449810028,-0.9850532412528992,0.0010362081229686737,0.022371236234903336,-0.038410626351833344,0.0,0.0,0.0,2025-12-11T02:28:55.914209+00:00
28127543664,1,0,0.03362791985273361,0.21152639389038086,-0.9819150567054749,0.007034534588456154,0.012783563695847988,-0.034599948674440384,0.0,0.0,0.0,2025-12-11T02:28:55.914267+00:00
28194215784,1,0,0.03727227821946144,0.20908664166927338,-0.9848209619522095,0.008859426714479923,0.010652969591319561,-0.02667686715722084,0.0,0.0,0.0,2025-12-11T02:28:55.993460+00:00
28260882324,1,0,0.031041519716382027,0.20981855690479279,-0.982106626033783,0.0024151206016540527,0.0,-0.021074587479233742,0.0,0.0,0.0,2025-12-11T02:28:56.073319+00:00
28310913763,1,0,0.028805259615182877,0.20981855690479279,-0.9829855561256409,0.011866910383105278,-0.005859133321791887,-0.025901416316628456,0.0,0.0,0.0,2025-12-11T02:28:56.152854+00:00
28377551829,1,0,0.02757604792714119,0.20689086616039276,-0.9800617694854736,0.01517612673342228,0.0,-0.01495420467108488,0.0,0.0,0.0,2025-12-11T02:28:56.221197+00:00
28444216195,1,0,0.028805259615182877,0.20469509065151215,-0.9829855561256409,-0.0014011026360094547,0.0005326484679244459,-0.014323003590106964,0.0,0.0,0.0,2025-12-11T02:28:56.300749+00:00
28510901549,1,0,0.026737626641988754,0.2059149593114853,-0.9833459258079529,-0.0014011026360094547,0.0005326484679244459,-0.014323003590106964,0.0,0.0,0.0,2025-12-11T02:28:56.300824+00:00
28577536611,1,0,0.023072943091392517,0.20396314561367035,-0.9776796698570251,-0.009235416539013386,-0.003195890923961997,-0.024550244212150574,0.0,0.0,0.0,2025-12-11T02:28:56.380666+00:00
28644207037,1,0,0.02482602931559086,0.2027432918548584,-0.9814622402191162,-0.030365485697984695,-0.007989726960659027,-0.019432783126831055,0.0,0.0,0.0,2025-12-11T02:28:56.460475+00:00
28710897681,1,0,0.01882239244878292,0.21079446375370026,-0.9861645698547363,-0.03455556556582451,-0.006924430374056101,-0.01306060329079628,0.0,0.0,0.0,2025-12-11T02:28:56.539960+00:00
28760905376,1,0,0.01464905496686697,0.21445408463478088,-0.9817097187042236,-0.01111024059355259,0.0026632423978298903,-0.025694003328680992,0.0,0.0,0.0,2025-12-11T02:28:56.621624+00:00
28827569060,1,0,0.01653527282178402,0.2127462774515152,-0.9801431894302368,-0.011685961857438087,0.009055024944245815,-0.04980381578207016,0.0,0.0,0.0,2025-12-11T02:28:56.621715+00:00
28894240799,1,0,0.021909860894083977,0.21177037060260773,-0.9837265610694885,-0.029642103239893913,0.005859133321791887,-0.06650865077972412,0.0,0.0,0.0,2025-12-11T02:28:56.703398+00:00
28960934239,1,0,0.023249253630638123,0.20957458019256592,-0.9781959056854248,-0.010882770642638206,0.017044750973582268,-0.056577589362859726,0.0,0.0,0.0,2025-12-11T02:28:56.785033+00:00
29027546808,1,0,0.025858556851744652,0.21152639389038086,-0.981109619140625,-0.010730837471783161,0.02024064213037491,-0.026067858561873436,0.0,0.0,0.0,2025-12-11T02:28:56.864848+00:00
29094249335,1,0,0.0279540978372097,0.2134781777858734,-0.9845446348190308,-0.0013900073245167732,0.011185618117451668,-0.01582952030003071,0.0,0.0,0.0,2025-12-11T02:28:56.938924+00:00
29160924510,1,0,0.026382429525256157,0.2127462774515152,-0.981968343257904,0.00271685142070055,0.010652969591319561,-0.010902827605605125,0.0,0.0,0.0,2025-12-11T02:28:57.198860+00:00
29227596099,1,0,0.0281278807669878,0.20981855690479279,-0.9847158789634705,-0.001456584082916379,0.00372853921726346,-0.00679042050614953,0.0,0.0,0.0,2025-12-11T02:28:57.198946+00:00
29294274251,1,0,0.024128373712301254,0.21006251871585846,-0.9804322123527527,0.0023152553476393223,0.012783563695847988,-0.007515938952565193,0.0,0.0,0.0,2025-12-11T02:28:57.198994+00:00
29360953325,1,0,0.021897122263908386,0.2081107348203659,-0.9820013642311096,-0.009570435620844364,0.010652969591319561,-0.030202455818653107,0.0,0.0,0.0,2025-12-11T02:28:57.488874+00:00
29427643387,1,0,0.02967669628560543,0.2066468894481659,-0.9841868281364441,-0.005507961381226778,0.0005326484679244459,-0.019249698147177696,0.0,0.0,0.0,2025-12-11T02:28:57.488948+00:00
29494452244,1,0,0.031583189964294434,0.20493905246257782,-0.9853804707527161,-0.005507961381226778,0.0005326484679244459,-0.019249698147177696,0.0,0.0,0.0,2025-12-11T02:28:57.488992+00:00
29561110998,1,0,0.025863662362098694,0.20469509065151215,-0.9817996025085449,0.001121565350331366,0.0005326484679244459,0.0011382094817236066,0.0,0.0,0.0,2025-12-11T02:28:57.489031+00:00
29627787426,1,0,0.022219303995370865,0.2051830291748047,-0.9788936376571655,-0.015389088541269302,0.0005326484679244459,-0.007269688416272402,0.0,0.0,0.0,2025-12-11T02:28:57.489069+00:00
29677823023,1,0,0.02669444866478443,0.20493905246257782,-0.9774805307388306,-0.03446679562330246,0.004793836735188961,-0.025112735107541084,0.0,0.0,0.0,2025-12-11T02:28:57.547858+00:00
29744494492,1,0,0.02299320138990879,0.21177037060260773,-0.9902743697166443,-0.058515578508377075,0.02077329158782959,-0.032822851091623306,0.0,0.0,0.0,2025-12-11T02:28:57.547934+00:00
29811164147,1,0,-0.0014313404681161046,0.22982452809810638,-0.9768250584602356,-0.05965037643909454,0.02077329158782959,-0.08330225944519043,0.0,0.0,0.0,2025-12-11T02:28:57.808492+00:00
29877981659,1,0,0.03743331879377365,0.21640589833259583,-0.9832671880722046,-0.021286271512508392,0.02077329158782959,-0.12708769738674164,0.0,0.0,0.0,2025-12-11T02:28:57.808567+00:00
29944635254,1,0,0.042938463389873505,0.2134781777858734,-0.9811562895774841,-0.012996161356568336,0.004261187743395567,-0.025331243872642517,0.0,0.0,0.0,2025-12-11T02:28:57.808608+00:00
30011308967,1,0,0.04673885554075241,0.21079446375370026,-0.9818183779716492,-0.011659497395157814,0.00745707843452692,0.048878565430641174,0.0,0.0,0.0,2025-12-11T02:28:57.857308+00:00
30077963705,1,0,0.02449115552008152,0.220553457736969,-0.982844889163971,-0.020867174491286278,-0.008522375486791134,0.020562032237648964,0.0,0.0,0.0,2025-12-11T02:28:58.128093+00:00
30127985897,1,0,0.024274196475744247,0.22104139626026154,-0.9768081903457642,-0.020867174491286278,-0.008522375486791134,0.020562032237648964,0.0,0.0,0.0,2025-12-11T02:28:58.223069+00:00
30194610237,1,0,0.027739617973566055,0.21860165894031525,-0.9788528680801392,-0.028646007180213928,-0.00745707843452692,0.0028022052720189095,0.0,0.0,0.0,2025-12-11T02:28:58.223153+00:00
